condition,single_duration,numerosity,trials.thisRepN,trials.thisTrialN,trials.thisN,trials.thisIndex,thisRow.t,notes,text_welcome.started,beep_1.started,beep_1.stopped,beep_2.started,beep_2.stopped,beep_3.started,beep_3.stopped,beep_4.started,beep_4.stopped,beep_5.started,beep_5.stopped,beep_6.started,beep_6.stopped,audio_name,audio_started,movie_name,movie_started,participant,session,date|hid,expName|hid,psychopyVersion|hid,frameRate,
6_con_duration,0.02,6,0,0,0,5,,,21.279358750209212,23.051592946657912,23.088341987365858,23.188978337170557,23.21139248753898,23.31202883734368,23.33400811268948,23.43464446249418,23.45650682146661,23.55714317127131,23.588453446654604,23.689089796459303,23.711464904388414,,,,,1,1,2024-10-02_13h10.03.877,audio,2024.1.5,120.48356067982914,
2_con_rate,0.02,2,0,1,1,7,,,,24.51655570282601,24.541016404656695,24.641652754461393,24.671820862358437,,,,,,,,,,,,,1,1,2024-10-02_13h10.03.877,audio,2024.1.5,120.48356067982914,
4_con_rate,0.02,4,0,2,2,9,,,,25.476911660796034,25.50448252973147,25.605118879536167,25.627486487524585,25.728122837329284,25.749980987655,25.8506173374597,25.87309927972965,,,,,,,,,1,1,2024-10-02_13h10.03.877,audio,2024.1.5,120.48356067982914,
5_con_rate,0.02,5,0,3,3,10,,,,26.678190078167248,26.704549946496265,26.805186296300963,26.82614602954127,26.92678237934597,26.955248654494063,27.055885004298762,27.077946154540406,27.178582504345105,27.205174904456364,,,,,,,1,1,2024-10-02_13h10.03.877,audio,2024.1.5,120.48356067982914,
4_con_duration,0.08,4,0,4,4,3,,,,28.01026570289396,28.09434011266567,28.19497646247037,28.278898029727863,28.37953437953256,28.460560529632495,28.561196879437194,28.64388702963479,,,,,,,,,1,1,2024-10-02_13h10.03.877,audio,2024.1.5,120.48356067982914,
5_con_duration,0.044,5,0,5,5,4,,,,29.448977828072387,29.493802862381564,29.594439212186263,29.63856648760848,29.739202837413178,29.788592029502617,29.889228379307315,29.937992404354738,30.038628754159436,30.088575737690554,,,,,,,1,1,2024-10-02_13h10.03.877,audio,2024.1.5,120.48356067982914,
1_con_rate,0.02,1,0,6,6,6,,,,30.89366653612815,30.92130807149224,,,,,,,,,,,,,,,1,1,2024-10-02_13h10.03.877,audio,2024.1.5,120.48356067982914,
3_con_rate,0.02,3,0,7,7,8,,,,31.726398869929838,31.745517404424028,31.846153754228727,31.866636571614073,31.967272921418772,31.989506404520945,,,,,,,,,,,1,1,2024-10-02_13h10.03.877,audio,2024.1.5,120.48356067982914,
1_con_duration,0.62,1,0,8,8,0,,,,32.79459720295854,33.422307279566304,,,,,,,,,,,,,,,1,1,2024-10-02_13h10.03.877,audio,2024.1.5,120.48356067982914,
2_con_duration,0.26,2,0,9,9,1,,,,34.2273980780039,34.488990946346895,34.5896272961516,34.85559911248274,,,,,,,,,,,,,1,1,2024-10-02_13h10.03.877,audio,2024.1.5,120.48356067982914,
6_con_rate,0.02,6,0,10,10,11,,,,35.66068991092034,35.68867123746313,35.789307587267835,35.811693529738115,35.91232987954282,35.93423940441571,36.034875754220415,36.05708365435712,36.157720004161824,36.18865632140078,36.28929267120548,36.31089677955024,,,,,1,1,2024-10-02_13h10.03.877,audio,2024.1.5,120.48356067982914,
3_con_duration,0.14,3,0,11,11,2,,,,37.11598757798784,37.2557494874578,37.3563858372625,37.50533169661649,37.60596804642119,37.755795071506874,,,,,,,3.wav,38.554062083829194,3.mp4,38.554062083829194,1,1,2024-10-02_13h10.03.877,audio,2024.1.5,120.48356067982914,
3_con_duration,0.14,3,1,0,12,2,,,,40.406949715595694,40.555705779371785,40.65634212917649,40.80585807156749,40.906494421372194,46.95999465431087,,,,,,,,,,,1,1,2024-10-02_13h10.03.877,audio,2024.1.5,120.48356067982914,
6_con_rate,0.02,6,1,1,13,11,,,,47.75669909026474,47.77630440439098,47.87694075419568,47.90648436234333,48.00712071214803,48.02898069671355,48.129617046518256,48.15218307138421,48.25281942118891,48.27551365471445,48.376150004519154,48.40563644669019,,,,,1,1,2024-10-02_13h10.03.877,audio,2024.1.5,120.48356067982914,
1_con_rate,0.02,1,1,2,14,6,,,,49.210727245127785,49.23901436259039,,,,,,,,,,,,,,,1,1,2024-10-02_13h10.03.877,audio,2024.1.5,120.48356067982914,
6_con_duration,0.02,6,1,3,15,5,,,,50.044105161027986,50.07236648737453,53.77913870518096,53.80678773731925,53.90742408712395,53.940749779483305,54.04138612928801,54.0720727794338,54.172709129238505,54.19483907162212,54.29547542142682,54.32241282160394,,,,,1,1,2024-10-02_13h10.03.877,audio,2024.1.5,120.48356067982914,
5_con_rate,0.02,5,1,4,16,10,,,,55.12750362004154,55.15563202942722,55.25626837923192,55.278217112319545,55.37885346212425,55.405699404561894,55.506335754366596,55.52854894674383,55.629185296548535,55.65074982135557,,,,,,,1,1,2024-10-02_13h10.03.877,audio,2024.1.5,120.48356067982914,
3_con_rate,0.02,3,1,5,17,8,,,,56.455840619793165,56.48845690456219,56.589093254366894,56.6101185713429,56.710754921147604,56.739057946624236,,,,,,,,,,,1,1,2024-10-02_13h10.03.877,audio,2024.1.5,120.48356067982914,
5_con_duration,0.044,5,1,6,18,4,,,,57.54414874506183,57.58847340443172,57.68910975423642,57.73905852963217,57.83969487943687,57.88905698773451,57.989693337539215,58.0391385295894,58.1397748793941,58.18905640454032,,,,,,,1,1,2024-10-02_13h10.03.877,audio,2024.1.5,120.48356067982914,
4_con_duration,0.08,4,1,7,19,3,,,,58.99414720297791,59.07785411239602,59.17849046220072,59.26113694640808,59.36177329621278,59.44450069651939,59.54513704632409,59.62784769632854,,,,,,,,,1,1,2024-10-02_13h10.03.877,audio,2024.1.5,120.48356067982914,
4_con_rate,0.02,4,1,8,20,9,,,,60.432938494766134,60.45698048747145,60.55761683727615,60.57970165475272,60.68033800455742,60.70151415434666,60.80215050415136,60.82427232167684,,,,,,,,,1,1,2024-10-02_13h10.03.877,audio,2024.1.5,120.48356067982914,
2_con_duration,0.26,2,1,9,21,1,,,,61.629363120114434,61.889360612398015,61.98999696220272,62.25601511229761,,,,,,,,,,,,,1,1,2024-10-02_13h10.03.877,audio,2024.1.5,120.48356067982914,
1_con_duration,0.62,1,1,10,22,0,,,,63.06110591073521,63.680308571690695,,,,,,,,,,,,,,,1,1,2024-10-02_13h10.03.877,audio,2024.1.5,120.48356067982914,
2_con_rate,0.02,2,1,11,23,7,,,,64.48539937012829,64.50979769662953,64.61043404643424,64.63916302951984,,,,,,,,,3.wav,65.43664704216644,13.mp4,65.43664704216644,1,1,2024-10-02_13h10.03.877,audio,2024.1.5,120.48356067982914,
3_con_duration,0.14,3,2,0,24,2,,,,67.26066925739869,67.40628865468315,67.50692500448785,67.656319946656,67.7569562964607,67.89876669659279,,,,,,,,,,,1,1,2024-10-02_13h10.03.877,audio,2024.1.5,120.48356067982914,
4_con_rate,0.02,4,2,1,25,9,,,,68.70385749503038,68.72332623754627,68.82396258735098,68.84628332140855,68.94691967121325,68.96871498753316,69.06935133733786,69.09079248751513,,,,,,,,,1,1,2024-10-02_13h10.03.877,audio,2024.1.5,120.48356067982914,
5_con_duration,0.044,5,2,2,26,4,,,,69.89588328595272,69.94446927974931,70.04510562955402,70.08929886263795,70.18993521244265,70.23999940431676,70.34063575412146,70.39053927934728,70.49117562915198,70.54113852945156,,,,,,,1,1,2024-10-02_13h10.03.877,audio,2024.1.5,120.48356067982914,
5_con_rate,0.02,5,2,3,27,10,,,,71.34622932788915,71.37519698743708,71.47583333724178,71.50605198754928,71.60668833735399,71.63140777931548,71.73204412912018,71.75592927974648,71.85656562955118,71.87856544661335,,,,,,,1,1,2024-10-02_13h10.03.877,audio,2024.1.5,120.48356067982914,
1_con_rate,0.02,1,2,4,28,6,,,,72.68365624505094,72.70758052929304,,,,,,,,,,,,,,,1,1,2024-10-02_13h10.03.877,audio,2024.1.5,120.48356067982914,
3_con_rate,0.02,3,2,5,29,8,,,,73.51267132773063,73.53200327944941,73.63263962925411,73.65431140470318,73.75494775450788,73.77658273759297,,,,,,,,,,,1,1,2024-10-02_13h10.03.877,audio,2024.1.5,120.48356067982914,
6_con_duration,0.02,6,2,6,30,5,,,,74.58167353603056,74.6060470716562,74.70668342146091,74.72868202966637,74.82931837947108,74.85107382168061,80.46155032329261,80.49211907167918,80.59275542148389,80.62285490441135,80.72349125421606,80.746438279422,,,,,1,1,2024-10-02_13h10.03.877,audio,2024.1.5,120.48356067982914,
2_con_rate,0.02,2,2,7,31,7,,,,81.55152907785958,81.57521098772995,81.67584733753465,81.70622669639997,,,,,,,,,,,,,1,1,2024-10-02_13h10.03.877,audio,2024.1.5,120.48356067982914,
1_con_duration,0.62,1,2,8,32,0,,,,82.51131749483756,83.13057182137854,,,,,,,,,,,,,,,1,1,2024-10-02_13h10.03.877,audio,2024.1.5,120.48356067982914,
2_con_duration,0.26,2,2,9,33,1,,,,83.93566261981613,84.19534607152454,84.29598242132924,84.55662786229513,,,,,,,,,,,,,1,1,2024-10-02_13h10.03.877,audio,2024.1.5,120.48356067982914,
6_con_rate,0.02,6,2,10,34,11,,,,85.36171866073272,85.3897106965538,85.49034704635851,85.5134466543328,85.6140830041375,85.6358393213246,85.7364756711293,85.75974090457893,85.86037725438364,85.8895799044054,85.9902162542101,86.01239648754708,,,,,1,1,2024-10-02_13h10.03.877,audio,2024.1.5,120.48356067982914,
4_con_duration,0.08,4,2,11,35,3,,,,86.81748728598467,86.90853652930818,87.00917287911288,87.08988211271352,87.19051846251823,87.27310419655404,87.37374054635875,87.45794273740611,,,,,1.wav,88.25519387517124,4.mp4,88.25519387517124,1,1,2024-10-02_13h10.03.877,audio,2024.1.5,120.48356067982914,
3_con_duration,0.14,3,3,0,36,2,,,,90.10901350751519,90.25670340438373,90.35733975418843,90.50658382163382,90.60722017143853,90.7565944047179,,,,,,,,,,,1,1,2024-10-02_13h10.03.877,audio,2024.1.5,120.48356067982914,
4_con_rate,0.02,4,3,1,37,9,,,,91.56168520315549,91.58976373742334,91.69040008722804,91.71290294653735,91.81353929634206,91.83548415466211,91.93612050446681,91.95594519670121,,,,,,,,,1,1,2024-10-02_13h10.03.877,audio,2024.1.5,120.48356067982914,
5_con_duration,0.044,5,3,2,38,4,,,,92.7610359951388,92.80642344630323,92.90705979610793,92.95638636234216,93.05702271214686,93.10640948745421,104.0254534412641,104.07137986239977,104.17201621220447,104.22284973752684,,,,,,,1,1,2024-10-02_13h10.03.877,audio,2024.1.5,120.48356067982914,
5_con_rate,0.02,5,3,3,39,10,,,,105.02794053596443,105.04853769638575,105.14917404619045,105.16882540439255,105.26946175419725,105.29321282138116,105.39384917118586,105.42329902960918,105.52393537941389,105.56572190453298,,,,,,,1,1,2024-10-02_13h10.03.877,audio,2024.1.5,120.48356067982914,
4_con_duration,0.08,4,3,4,40,3,,,,106.37081270297057,106.45844852938316,106.55908487918786,106.6401637374889,106.74080008729361,106.82370673739351,106.92434308719821,107.00674552950076,,,,,,,,,1,1,2024-10-02_13h10.03.877,audio,2024.1.5,120.48356067982914,
2_con_duration,0.26,2,3,5,41,1,,,,107.81183632793835,108.07349127964116,108.17412762944586,108.44137582150287,,,,,,,,,,,,,1,1,2024-10-02_13h10.03.877,audio,2024.1.5,120.48356067982914,
6_con_duration,0.02,6,3,6,42,5,,,,109.24646661994046,109.27351948772557,109.37415583753027,109.39645182169042,109.49708817149512,109.52121677962131,109.62185312942601,109.64395902971737,109.74459537952207,109.77351607163436,109.87415242143906,109.89619348770938,,,,,1,1,2024-10-02_13h10.03.877,audio,2024.1.5,120.48356067982914,
3_con_rate,0.02,3,3,7,43,8,,,,110.70128428614697,110.72302532163448,110.82366167143918,110.8478827794548,110.94851912925951,110.97089590472169,,,,,,,,,,,1,1,2024-10-02_13h10.03.877,audio,2024.1.5,120.48356067982914,
2_con_rate,0.02,2,3,8,44,7,,,,111.77598670315928,111.79741240446455,111.89804875426925,111.9215656124521,,,,,,,,,,,,,1,1,2024-10-02_13h10.03.877,audio,2024.1.5,120.48356067982914,
6_con_rate,0.02,6,3,9,45,11,,,,112.72665641088969,112.75635194652713,112.85698829633183,112.87897490444593,112.97961125425063,113.0068474874366,113.1074838372413,113.14189611249603,113.24253246230073,113.2736287374515,113.3742650872562,113.39449140443466,,,,,1,1,2024-10-02_13h10.03.877,audio,2024.1.5,120.48356067982914,
1_con_rate,0.02,1,3,10,46,6,,,,114.19958220287225,114.22165215448476,,,,,,,,,,,,,,,1,1,2024-10-02_13h10.03.877,audio,2024.1.5,120.48356067982914,
1_con_duration,0.62,1,3,11,47,0,,,,115.02674295292235,115.64765940434299,,,,,,,,,,,5.wav,116.444908792153,3.mp4,116.444908792153,1,1,2024-10-02_13h10.03.877,audio,2024.1.5,120.48356067982914,
6_con_duration,0.02,6,4,0,48,5,,,,118.27318084044381,118.29507073774002,118.39570708754472,118.42356911269016,118.52420546249486,118.55990057173184,118.66053692153655,118.69053652943111,118.79117287923582,118.82373894671909,118.92437529652379,118.95892611253075,,,,,1,1,2024-10-02_13h10.03.877,audio,2024.1.5,120.48356067982914,
3_con_duration,0.14,3,4,1,49,2,,,,119.76401691096834,119.90705957137979,120.00769592118449,120.1598664463032,120.2605027961079,120.40720832129008,,,,,,,,,,,1,1,2024-10-02_13h10.03.877,audio,2024.1.5,120.48356067982914,
2_con_rate,0.02,2,4,2,50,7,,,,121.21229911972767,121.24037694665603,121.34101329646073,121.37682694629765,,,,,,,,,,,,,1,1,2024-10-02_13h10.03.877,audio,2024.1.5,120.48356067982914,
2_con_duration,0.26,2,4,3,51,1,,,,122.18191774473524,122.44688065457157,122.54751700437627,122.80746736251749,,,,,,,,,,,,,1,1,2024-10-02_13h10.03.877,audio,2024.1.5,120.48356067982914,
4_con_rate,0.02,4,4,4,52,9,,,,123.61255816095507,123.64042086261324,123.74105721241794,123.76416744631715,123.86480379612185,123.88821582137606,123.98885217118077,124.01233419650234,,,,,,,,,1,1,2024-10-02_13h10.03.877,audio,2024.1.5,120.48356067982914,
1_con_rate,0.02,1,4,5,53,6,,,,124.81742499493993,124.84143298738636,,,,,,,,,,,,,,,1,1,2024-10-02_13h10.03.877,audio,2024.1.5,120.48356067982914,
6_con_rate,0.02,6,4,6,54,11,,,,125.64652378582394,125.67314315461553,125.77377950442023,125.79537215470336,125.89600850450806,125.92361298729665,126.02424933710135,126.04635240430943,126.14698875411413,126.16904465449042,126.26968100429512,126.29046994647942,,,,,1,1,2024-10-02_13h10.03.877,audio,2024.1.5,120.48356067982914,
,,,,,,,,,,127.09556074491701,127.123861737689,127.2244980874937,127.2460391965229,127.3466755463276,127.37422827971167,127.47486462951638,127.4953543214593,127.595990671264,127.6178529464174,,,,,,,,,,,,,
