condition,single_duration,numerosity,trials.thisRepN,trials.thisTrialN,trials.thisN,trials.thisIndex,thisRow.t,notes,text_welcome.started,beep_1.started,beep_1.stopped,beep_2.started,beep_2.stopped,beep_3.started,beep_3.stopped,beep_4.started,beep_4.stopped,beep_5.started,beep_5.stopped,beep_6.started,beep_6.stopped,audio_name,audio_started,movie_name,movie_started,participant,session,date|hid,expName|hid,psychopyVersion|hid,frameRate,
3_con_rate,0.02,3,0,0,0,8,,,18.205454875016585,20.543581866406022,20.56702090841427,20.667438809233136,20.691466325407966,20.79188422622683,20.81516345041164,,,,,,,,,,,1,1,2024-10-14_17h29.23.380,audio,2024.1.5,122.30707790928385,
2_con_rate,0.02,2,0,1,1,7,,,,21.618506656962566,21.6404725754197,21.740890476238565,21.76434545039374,,,,,,,,,,,,,1,1,2024-10-14_17h29.23.380,audio,2024.1.5,122.30707790928385,
1_con_rate,0.02,1,0,2,2,6,,,,22.567688656944668,22.589273283412332,,,,,,,,,,,,,,,1,1,2024-10-14_17h29.23.380,audio,2024.1.5,122.30707790928385,
5_con_duration,0.044,5,0,3,3,4,,,,23.39261648996326,23.43945836640487,23.539876267223736,23.58419636640756,23.684614267226426,23.734309075408966,23.83472697622783,23.88420465839736,23.984622559216223,24.03460507541022,,,,,,,1,1,2024-10-14_17h29.23.380,audio,2024.1.5,122.30707790928385,
5_con_rate,0.02,5,0,4,4,10,,,,24.837948281961147,24.86691761640541,24.967335517224274,24.99104270040116,25.091460601220025,25.117623825420743,25.21804172623961,25.24106570040167,25.341483601220535,25.36048911640828,,,,,,,1,1,2024-10-14_17h29.23.380,audio,2024.1.5,122.30707790928385,
4_con_rate,0.02,4,0,5,5,9,,,,26.16383232295921,26.186575533394354,26.28699343421322,26.317086075412227,26.417503976231092,26.440578741408537,26.5409966422274,26.56406803339778,,,,,,,,,1,1,2024-10-14_17h29.23.380,audio,2024.1.5,122.30707790928385,
6_con_duration,0.02,6,0,6,6,5,,,,27.36741123994871,27.38979757540219,27.490215476221056,27.51223595039628,27.612653851215146,27.634242783396623,27.734660684215488,27.758534325411894,27.85895222623076,27.881818491421292,27.982236392240157,28.005263450418717,,,,,1,1,2024-10-14_17h29.23.380,audio,2024.1.5,122.30707790928385,
4_con_duration,0.08,4,0,7,7,3,,,,28.808606656969644,28.889707616393572,28.990125517212437,29.07304328340397,29.173461184222834,29.25632820040628,29.356746101225145,29.439744325421636,,,,,,,,,1,1,2024-10-14_17h29.23.380,audio,2024.1.5,122.30707790928385,
1_con_duration,0.62,1,0,8,8,0,,,,30.243087531972563,30.868449075418177,,,,,,,,,,,,,,,1,1,2024-10-14_17h29.23.380,audio,2024.1.5,122.30707790928385,
2_con_duration,0.26,2,0,9,9,1,,,,31.671792281969104,31.934911366415328,32.0353292672342,32.301416700394476,,,,,,,,,,,,,1,1,2024-10-14_17h29.23.380,audio,2024.1.5,122.30707790928385,
6_con_rate,0.02,6,0,10,10,11,,,,33.104759906945404,33.133771991395044,33.23418989221391,33.25755207541224,33.35796997623111,33.37786624142027,33.47828414223914,33.49728570041189,33.597703601230755,33.622288241409116,33.722706142227985,33.74631311640551,,,,,1,1,2024-10-14_17h29.23.380,audio,2024.1.5,122.30707790928385,
3_con_duration,0.14,3,0,11,11,2,,,,34.54965632295644,34.68993170039321,34.79034960121208,34.93487407541543,35.0352919762343,35.18487253340718,,,,,,,4.wav,35.98356291701202,13.mp4,35.98356291701202,1,1,2024-10-14_17h29.23.380,audio,2024.1.5,122.30707790928385,
2_con_duration,0.26,2,1,0,12,1,,,,37.80473512355238,38.0683148664044,38.16873276722327,38.434761200399954,,,,,,,,,,,,,1,1,2024-10-14_17h29.23.380,audio,2024.1.5,122.30707790928385,
1_con_rate,0.02,1,1,1,13,6,,,,39.23810440695088,39.26736532539653,,,,,,,,,,,,,,,1,1,2024-10-14_17h29.23.380,audio,2024.1.5,122.30707790928385,
6_con_duration,0.02,6,1,2,14,5,,,,40.07070853194746,40.10149503340072,40.201912934219585,40.224916325396045,40.32533422621491,40.34855953340011,40.44897743421898,40.471539950414446,40.571957851233314,40.601325908393484,40.70174380921235,40.73471065841441,,,,,1,1,2024-10-14_17h29.23.380,audio,2024.1.5,122.30707790928385,
6_con_rate,0.02,6,1,3,15,11,,,,41.538053864965335,41.56801720040094,41.668435101219806,41.687805741393824,41.78822364221269,41.817955741405605,41.91837364222447,41.93742890840222,42.03784680922109,42.06790932539443,42.1683272262133,42.187480575413794,,,,,1,1,2024-10-14_17h29.23.380,audio,2024.1.5,122.30707790928385,
5_con_duration,0.044,5,1,4,16,4,,,,42.99082378196472,43.034848991411856,43.135266892230725,43.184668866402355,43.28508676722122,43.335089241396055,43.435507142214924,43.48420378339652,43.584621684215385,43.63464849140437,,,,,,,1,1,2024-10-14_17h29.23.380,audio,2024.1.5,122.30707790928385,
4_con_rate,0.02,4,1,5,17,9,,,,44.4379916979553,44.468227575396305,44.568645476215174,44.601318575421466,44.701736476240335,44.73465028342034,44.83506818423921,44.85414345039462,,,,,,,,,1,1,2024-10-14_17h29.23.380,audio,2024.1.5,122.30707790928385,
4_con_duration,0.08,4,1,6,18,3,,,,45.65748665694555,45.74026807541086,45.84068597622973,45.923487075409504,46.02390497622837,46.10707049139601,46.20748839221488,46.29034890840703,,,,,,,,,1,1,2024-10-14_17h29.23.380,audio,2024.1.5,122.30707790928385,
1_con_duration,0.62,1,1,7,19,0,,,,47.09369211495796,47.7188459504192,,,,,,,,,,,,,,,1,1,2024-10-14_17h29.23.380,audio,2024.1.5,122.30707790928385,
5_con_rate,0.02,5,1,8,20,10,,,,48.52218915697013,48.55140040841943,48.6518183092383,48.6843071584095,48.78472505922837,48.8182923254004,48.91871022621927,48.95143661640177,49.05185451722064,49.074846866403824,,,,,,,1,1,2024-10-14_17h29.23.380,audio,2024.1.5,122.30707790928385,
3_con_duration,0.14,3,1,9,21,2,,,,49.87819007295475,50.01846628340136,50.11888418422023,50.26846195039398,50.368879851212846,50.518413116407466,,,,,,,,,,,1,1,2024-10-14_17h29.23.380,audio,2024.1.5,122.30707790928385,
2_con_rate,0.02,2,1,10,22,7,,,,51.32175632295839,51.351490158421804,51.45190805924067,51.48475136640773,,,,,,,,,,,,,1,1,2024-10-14_17h29.23.380,audio,2024.1.5,122.30707790928385,
3_con_rate,0.02,3,1,11,23,8,,,,52.288094572958656,52.31817095040751,52.41858885122638,52.45146903341229,52.551886934231156,52.57464878340543,,,,,,,4.wav,53.37298362501315,13.mp4,53.37298362501315,1,1,2024-10-14_17h29.23.380,audio,2024.1.5,122.30707790928385,
3_con_rate,0.02,3,2,0,24,8,,,,55.2180136645562,55.240778575398146,55.341196476217014,55.36513507541677,55.465552976235635,55.48820886639587,,,,,,,,,,,1,1,2024-10-14_17h29.23.380,audio,2024.1.5,122.30707790928385,
5_con_rate,0.02,5,2,1,25,10,,,,56.2915520729468,56.317722075394705,56.418139976213574,56.44201974140888,56.542437642227746,56.56517053341086,56.665588434229726,56.68964074139658,56.79005864221545,56.817812866394526,,,,,,,1,1,2024-10-14_17h29.23.380,audio,2024.1.5,122.30707790928385,
1_con_duration,0.62,1,2,2,26,0,,,,57.62115607294545,58.24209336640488,,,,,,,,,,,,,,,1,1,2024-10-14_17h29.23.380,audio,2024.1.5,122.30707790928385,
2_con_rate,0.02,2,2,3,27,7,,,,59.04543657295581,59.065923991418096,59.166341892236964,59.19036536641361,,,,,,,,,,,,,1,1,2024-10-14_17h29.23.380,audio,2024.1.5,122.30707790928385,
5_con_duration,0.044,5,2,4,28,4,,,,59.993708572964536,60.04103240840195,60.14145030922082,60.185347991393066,60.285765892211934,60.33517624141823,60.4355941422371,60.48500061641389,60.58541851723276,60.635209241395934,,,,,,,1,1,2024-10-14_17h29.23.380,audio,2024.1.5,122.30707790928385,
3_con_duration,0.14,3,2,5,29,2,,,,61.43855244794686,61.58543499140942,61.68585289222829,61.83535799140518,61.93577589222405,62.085353408395896,,,,,,,,,,,1,1,2024-10-14_17h29.23.380,audio,2024.1.5,122.30707790928385,
2_con_duration,0.26,2,2,6,30,1,,,,62.888696614946824,63.15213249141525,63.25255039223412,63.518890200395255,,,,,,,,,,,,,1,1,2024-10-14_17h29.23.380,audio,2024.1.5,122.30707790928385,
4_con_rate,0.02,4,2,7,31,9,,,,64.32223340694618,64.35169328339688,64.45211118421575,64.4756512414111,64.57606914222997,64.59911757539666,64.69953547621553,64.72349982540763,,,,,,,,,1,1,2024-10-14_17h29.23.380,audio,2024.1.5,122.30707790928385,
4_con_duration,0.08,4,2,8,32,3,,,,65.52684303195855,65.60710986640478,65.70752776722365,65.79054682539717,65.89096472621604,65.97390911641705,66.07432701723592,66.157197283415,,,,,,,,,1,1,2024-10-14_17h29.23.380,audio,2024.1.5,122.30707790928385,
1_con_rate,0.02,1,2,9,33,6,,,,66.96054048996592,66.98162045039643,,,,,,,,,,,,,,,1,1,2024-10-14_17h29.23.380,audio,2024.1.5,122.30707790928385,
6_con_duration,0.02,6,2,10,34,5,,,,67.78496365694735,67.80673807540151,67.90715597622038,67.93077820039761,68.03119610121648,68.05477928342006,68.15519718423893,68.18473407539713,68.285151976216,68.30884915841452,68.40926705923339,68.43190570039732,,,,,1,1,2024-10-14_17h29.23.380,audio,2024.1.5,122.30707790928385,
6_con_rate,0.02,6,2,11,35,11,,,,69.23524890694824,69.2565897413966,69.35700764221546,69.38468890841759,69.48510680923646,69.50857745042012,69.60899535123899,69.63168399141577,69.73210189223464,69.75145574141933,69.8518736422382,69.875019366396,1.wav,70.67327654201654,16.mp4,70.67327654201654,1,1,2024-10-14_17h29.23.380,audio,2024.1.5,122.30707790928385,
4_con_rate,0.02,4,3,0,36,9,,,,72.49680637355195,72.51980586641875,72.62022376723762,72.6521401164151,72.75255801723397,72.78489457540272,72.88531247622159,72.9084642834001,,,,,,,,,1,1,2024-10-14_17h29.23.380,audio,2024.1.5,122.30707790928385,
1_con_rate,0.02,1,3,1,37,6,,,,73.71180748995101,73.73545732542115,,,,,,,,,,,,,,,1,1,2024-10-14_17h29.23.380,audio,2024.1.5,122.30707790928385,
4_con_duration,0.08,4,3,2,38,3,,,,74.53880053197207,74.61875836639373,74.7191762672126,74.80212120040377,74.90253910122264,74.98537361640192,75.08579151722078,75.16871061639685,,,,,,,,,1,1,2024-10-14_17h29.23.380,audio,2024.1.5,122.30707790928385,
5_con_rate,0.02,5,3,3,39,10,,,,75.97205382294777,76.00195815839979,76.10237605921866,76.13540853339654,76.23582643421541,76.26816970040963,76.3685876012285,76.39209578341396,76.49251368423283,76.51551557539787,,,,,,,1,1,2024-10-14_17h29.23.380,audio,2024.1.5,122.30707790928385,
6_con_rate,0.02,6,3,4,40,11,,,,77.31885878194879,77.33946611639985,77.43988401721872,77.46818936640338,77.56860726722225,77.59146403341728,77.69188193423615,77.71867545040149,77.81909335122036,77.84178103341546,77.94219893423433,77.96476345041592,,,,,1,1,2024-10-14_17h29.23.380,audio,2024.1.5,122.30707790928385,
2_con_rate,0.02,2,3,5,41,7,,,,78.76810665696684,78.78945107540639,78.88986897622526,78.91885978339414,,,,,,,,,,,,,1,1,2024-10-14_17h29.23.380,audio,2024.1.5,122.30707790928385,
2_con_duration,0.26,2,3,6,42,1,,,,79.72220298994506,79.9858874504076,80.08630535122647,80.3527939913998,,,,,,,,,,,,,1,1,2024-10-14_17h29.23.380,audio,2024.1.5,122.30707790928385,
6_con_duration,0.02,6,3,7,43,5,,,,81.15613719795073,81.18578157539886,81.28619947621773,81.31838128341187,81.41879918423074,81.44229770039382,81.54271560121269,81.56597757541167,81.66639547623053,81.68961578340677,81.79003368422563,81.81831732541613,,,,,1,1,2024-10-14_17h29.23.380,audio,2024.1.5,122.30707790928385,
3_con_rate,0.02,3,3,8,44,8,,,,82.62166053196705,82.64235570041055,82.74277360122942,82.77096811642113,82.87975417564157,82.90062790839292,,,,,,,,,,,1,1,2024-10-14_17h29.23.380,audio,2024.1.5,122.30707790928385,
1_con_duration,0.62,1,3,9,45,0,,,,83.71233927334542,84.34250478339672,,,,,,,,,,,,,,,1,1,2024-10-14_17h29.23.380,audio,2024.1.5,122.30707790928385,
3_con_duration,0.14,3,3,10,46,2,,,,85.14584798994764,85.29009845041728,85.39888450963771,85.53797899140918,85.64676505062961,85.78607990840973,,,,,,,,,,,1,1,2024-10-14_17h29.23.380,audio,2024.1.5,122.30707790928385,
5_con_duration,0.044,5,3,11,47,4,,,,86.58942311496065,86.63601165841973,86.7364295592386,86.78507661639887,86.88549451721774,86.93501120041182,87.03542910123069,87.08513615840056,87.18555405921943,87.23639632541162,,,1.wav,88.03548575000605,15.mp4,88.03548575000605,1,1,2024-10-14_17h29.23.380,audio,2024.1.5,122.30707790928385,
5_con_rate,0.02,5,4,0,48,10,,,,89.85915883155539,89.88571349139383,89.9861313922127,90.01068320041813,90.111101101237,90.13245086640526,90.23286876722413,90.25736932541767,90.35778722623654,90.38218865841336,,,,,,,1,1,2024-10-14_17h29.23.380,audio,2024.1.5,122.30707790928385,
4_con_rate,0.02,4,4,1,49,9,,,,91.18553186496428,91.20735482540621,91.30777272622508,91.33232174139411,91.43273964221298,91.45567940839973,91.5560973092186,91.58527065840607,,,,,,,,,1,1,2024-10-14_17h29.23.380,audio,2024.1.5,122.30707790928385,
3_con_rate,0.02,3,4,2,50,8,,,,92.388613864957,92.41180103340011,92.51221893421898,92.53712878342193,92.6375466842408,92.66851111642026,,,,,,,,,,,1,1,2024-10-14_17h29.23.380,audio,2024.1.5,122.30707790928385,
1_con_duration,0.62,1,4,3,51,0,,,,93.47185432297118,94.09411620041064,,,,,,,,,,,,,,,1,1,2024-10-14_17h29.23.380,audio,2024.1.5,122.30707790928385,
4_con_duration,0.08,4,4,4,52,3,,,,94.89745940696156,94.98576115840987,95.08617905922874,95.16926020041282,95.26967810123169,95.35268357539607,95.45310147621494,95.53586953340854,,,,,,,,,1,1,2024-10-14_17h29.23.380,audio,2024.1.5,122.30707790928385,
3_con_duration,0.14,3,4,5,53,2,,,,96.33921273995946,96.48621811640041,96.58663601721928,96.73609953339619,96.83651743421505,96.98620586639444,,,,,,,,,,,1,1,2024-10-14_17h29.23.380,audio,2024.1.5,122.30707790928385,
2_con_rate,0.02,2,4,6,54,7,,,,97.78954907294536,97.81850495041871,97.91892285123758,97.94273845040297,,,,,,,,,,,,,1,1,2024-10-14_17h29.23.380,audio,2024.1.5,122.30707790928385,
6_con_rate,0.02,6,4,7,55,11,,,,98.74608165695389,98.76955436639545,98.86997226721432,98.89326857540581,98.99368647622468,99.01642795041843,99.1168458512373,99.13998632541333,99.2404042262322,99.26057195041503,99.3609898512339,99.38551278340455,,,,,1,1,2024-10-14_17h29.23.380,audio,2024.1.5,122.30707790928385,
2_con_duration,0.26,2,4,8,56,1,,,,100.18885598995547,100.45299624140316,100.55341414222202,100.81966361640079,,,,,,,,,,,,,1,1,2024-10-14_17h29.23.380,audio,2024.1.5,122.30707790928385,
6_con_duration,0.02,6,4,9,57,5,,,,101.62300682295171,101.65203278340923,101.7524506842281,101.78604415839945,101.88646205921832,101.90955724140221,102.00997514222108,102.03268361639638,102.13310151721525,102.15677574141009,102.25719364222896,102.28564365840575,,,,,1,1,2024-10-14_17h29.23.380,audio,2024.1.5,122.30707790928385,
1_con_rate,0.02,1,4,10,58,6,,,,103.08898686495667,103.11868115841352,,,,,,,,,,,,,,,1,1,2024-10-14_17h29.23.380,audio,2024.1.5,122.30707790928385,
5_con_duration,0.044,5,4,11,59,4,,,,103.92202436496444,103.96876836641749,104.06918626723636,104.11914707540708,104.21956497622595,104.26926986641192,104.36968776723079,104.41960315840842,104.52002105922729,104.56949524139927,,,1.wav,105.3685048329935,15.mp4,105.3685048329935,1,1,2024-10-14_17h29.23.380,audio,2024.1.5,122.30707790928385,
1_con_rate,0.02,1,5,0,60,6,,,,107.19646720654563,107.21917570039804,,,,,,,,,,,,,,,1,1,2024-10-14_17h29.23.380,audio,2024.1.5,122.30707790928385,
5_con_duration,0.044,5,5,1,61,4,,,,108.02251890694896,108.06948257541225,108.16990047623112,108.21938757541065,108.31980547622952,108.36887378339597,108.46929168421484,108.51929236640862,108.61971026722749,108.66892970039916,,,,,,,1,1,2024-10-14_17h29.23.380,audio,2024.1.5,122.30707790928385,
6_con_rate,0.02,6,5,2,62,11,,,,109.47227290695008,109.50301124141842,109.60342914223729,109.62348636639362,109.72390426721249,109.75277761641482,109.85319551723369,109.88617299140023,109.9865908922191,110.00602128340105,110.10643918421992,110.13625307542097,,,,,1,1,2024-10-14_17h29.23.380,audio,2024.1.5,122.30707790928385,
5_con_rate,0.02,5,5,3,63,10,,,,110.93959628197189,110.9687949504092,111.06921285122807,111.0924007004156,111.19281860123446,111.21637753339891,111.31679543421778,111.3368569914106,111.43727489222947,111.4691096163966,,,,,,,1,1,2024-10-14_17h29.23.380,audio,2024.1.5,122.30707790928385,
6_con_duration,0.02,6,5,4,64,5,,,,112.27245282294751,112.30222382539941,112.40264172621828,112.42694565840938,112.52736355922825,112.55009111640683,112.6505090172257,112.67352282541978,112.77394072623865,112.8028584084037,112.90327630922256,112.9361959914182,,,,,1,1,2024-10-14_17h29.23.380,audio,2024.1.5,122.30707790928385,
1_con_duration,0.62,1,5,5,65,0,,,,113.73953919796912,114.36102257541788,,,,,,,,,,,,,,,1,1,2024-10-14_17h29.23.380,audio,2024.1.5,122.30707790928385,
3_con_rate,0.02,3,5,6,66,8,,,,115.1643657819688,115.18571074141946,115.28612864223832,115.30541628341015,115.40583418422902,115.43659374142007,,,,,,,,,,,1,1,2024-10-14_17h29.23.380,audio,2024.1.5,122.30707790928385,
4_con_rate,0.02,4,5,7,67,9,,,,116.23993694797099,116.26890732540923,116.3693252262281,116.39284720039868,116.49326510121755,116.51684686641383,116.6172647672327,116.64032778339751,,,,,,,,,1,1,2024-10-14_17h29.23.380,audio,2024.1.5,122.30707790928385,
2_con_duration,0.26,2,5,8,68,1,,,,117.44367098994843,117.70350482539797,117.80392272621684,118.07010361640423,,,,,,,,,,,,,1,1,2024-10-14_17h29.23.380,audio,2024.1.5,122.30707790928385,
2_con_rate,0.02,2,5,9,69,7,,,,118.87344682295515,118.9023113664094,119.00272926722828,119.02542724141094,,,,,,,,,,,,,1,1,2024-10-14_17h29.23.380,audio,2024.1.5,122.30707790928385,
3_con_duration,0.14,3,5,10,70,2,,,,119.82877044796186,119.97000640841142,120.07042430923029,120.21101286641496,120.31143076723383,120.45329070039733,,,,,,,,,,,1,1,2024-10-14_17h29.23.380,audio,2024.1.5,122.30707790928385,
4_con_duration,0.08,4,5,11,71,3,,,,121.25663390694825,121.33640190840524,121.4368198092241,121.5197873663943,121.62020526721317,121.70310928341641,121.80352718423528,121.88640645039558,,,,,5.wav,122.68504295800813,12.mp4,122.68504295800813,1,1,2024-10-14_17h29.23.380,audio,2024.1.5,122.30707790928385,
6_con_rate,0.02,6,6,0,72,11,,,,124.53429549856227,124.55723632541194,124.6576542262308,124.6864554914151,124.78687339223397,124.81049903340462,124.9109169342235,124.93431199142069,125.03472989223955,125.05900770039588,125.15942560121475,125.18179615841072,,,,,1,1,2024-10-14_17h29.23.380,audio,2024.1.5,122.30707790928385,
2_con_duration,0.26,2,6,1,73,1,,,,125.98513936496164,126.25354645041224,126.35396435123111,126.62025707541906,,,,,,,,,,,,,1,1,2024-10-14_17h29.23.380,audio,2024.1.5,122.30707790928385,
1_con_duration,0.62,1,6,2,74,0,,,,127.42360028196998,128.04388307539338,,,,,,,,,,,,,,,1,1,2024-10-14_17h29.23.380,audio,2024.1.5,122.30707790928385,
6_con_duration,0.02,6,6,3,75,5,,,,128.8472262819443,128.86934386639913,128.969761767218,128.98903495042177,129.08945285124062,129.119532908409,129.21995080922787,129.24385390841925,129.3442718092381,129.36994990841194,129.4703678092308,129.50288053340918,,,,,1,1,2024-10-14_17h29.23.380,audio,2024.1.5,122.30707790928385,
5_con_duration,0.044,5,6,4,76,4,,,,130.3062237399601,130.35323174141521,130.45364964223407,130.50354640841542,130.60396430923427,130.653443658413,130.75386155923186,130.8032224084105,130.90364030922936,130.9532954504044,,,,,,,1,1,2024-10-14_17h29.23.380,audio,2024.1.5,122.30707790928385,
5_con_rate,0.02,5,6,5,77,10,,,,131.75663865695532,131.78587057541299,131.88628847623184,131.91018661642156,132.0106045172404,132.0310551163944,132.13147301721327,132.1558526584209,132.25627055923977,132.28679553341644,,,,,,,1,1,2024-10-14_17h29.23.380,audio,2024.1.5,122.30707790928385,
4_con_rate,0.02,4,6,6,78,9,,,,133.09013873996736,133.1194167833979,133.21983468421675,133.24397528341214,133.344393184231,133.3703242414136,133.47074214223247,133.4898082414089,,,,,,,,,1,1,2024-10-14_17h29.23.380,audio,2024.1.5,122.30707790928385,
3_con_rate,0.02,3,6,7,79,8,,,,134.29315144795981,134.3193008664035,134.41971876722235,134.44271420039294,134.5431321012118,134.56627890841045,,,,,,,,,,,1,1,2024-10-14_17h29.23.380,audio,2024.1.5,122.30707790928385,
2_con_rate,0.02,2,6,8,80,7,,,,135.36962211496137,135.39131332541874,135.4917312262376,135.5195907004032,,,,,,,,,,,,,1,1,2024-10-14_17h29.23.380,audio,2024.1.5,122.30707790928385,
1_con_rate,0.02,1,6,9,81,6,,,,136.32293390695412,136.35346878341224,,,,,,,,,,,,,,,1,1,2024-10-14_17h29.23.380,audio,2024.1.5,122.30707790928385,
3_con_duration,0.14,3,6,10,82,2,,,,137.15681198996316,137.30366803339857,137.40408593421742,137.5536621164152,137.65408001723407,137.80360124141734,,,,,,,,,,,1,1,2024-10-14_17h29.23.380,audio,2024.1.5,122.30707790928385,
4_con_duration,0.08,4,6,11,83,3,,,,138.60694444796826,138.686872158412,138.78729005923086,138.8701757004106,138.97059360122947,139.0535653253988,139.15398322621766,139.23676357541407,,,,,5.wav,140.03543704201002,12.mp4,140.03543704201002,1,1,2024-10-14_17h29.23.380,audio,2024.1.5,122.30707790928385,
6_con_duration,0.02,6,7,0,84,5,,,,141.86134316454408,141.88626495039497,141.98668285121383,142.0105042414012,142.11092214222006,142.1340541164187,142.23447201723755,142.253540366402,142.35395826722086,142.38686495039437,142.48728285121322,142.52019565841474,,,,,1,1,2024-10-14_17h29.23.380,audio,2024.1.5,122.30707790928385,
2_con_rate,0.02,2,7,1,85,7,,,,143.32353886496566,143.3534447004,143.45386260121884,143.48684065839333,,,,,,,,,,,,,1,1,2024-10-14_17h29.23.380,audio,2024.1.5,122.30707790928385,
5_con_duration,0.044,5,7,2,86,4,,,,144.29018386494425,144.336344283403,144.43676218422186,144.4868534084031,144.58727130922196,144.63687970041937,144.73729760123823,144.78714861640182,144.88756651722068,144.93698165840178,,,,,,,1,1,2024-10-14_17h29.23.380,audio,2024.1.5,122.30707790928385,
4_con_rate,0.02,4,7,3,87,9,,,,145.7403248649527,145.76963565839978,145.87005355921863,145.90318370040913,146.00360160122798,146.02679361639602,146.12721151721487,146.15044145039573,,,,,,,,,1,1,2024-10-14_17h29.23.380,audio,2024.1.5,122.30707790928385,
6_con_rate,0.02,6,7,4,88,11,,,,146.95378465694665,146.97440515840717,147.07482305922602,147.10357620041177,147.20399410123062,147.22722786639642,147.32764576721527,147.34988711641344,147.4503050172323,147.47335749140765,147.5737753922265,147.60323245041363,,,,,1,1,2024-10-14_17h29.23.380,audio,2024.1.5,122.30707790928385,
2_con_duration,0.26,2,7,5,89,1,,,,148.40657565696455,148.67071911641105,148.7711370172299,149.03736915841873,,,,,,,,,,,,,1,1,2024-10-14_17h29.23.380,audio,2024.1.5,122.30707790928385,
5_con_rate,0.02,5,7,6,90,10,,,,149.84071236496965,149.86974540839728,149.97016330921613,149.9933916163951,150.09380951721394,150.11680599139945,150.2172238922183,150.2401096164045,150.34052751722336,150.37055799141817,,,,,,,1,1,2024-10-14_17h29.23.380,audio,2024.1.5,122.30707790928385,
4_con_duration,0.08,4,7,7,91,3,,,,151.1739011979691,151.2538182004151,151.35423610123397,151.43708557540376,151.5375034762226,151.6205374504003,151.72095535121915,151.80375220039568,,,,,,,,,1,1,2024-10-14_17h29.23.380,audio,2024.1.5,122.30707790928385,
1_con_rate,0.02,1,7,8,92,6,,,,152.6070954069466,152.63702661641,,,,,,,,,,,,,,,1,1,2024-10-14_17h29.23.380,audio,2024.1.5,122.30707790928385,
1_con_duration,0.62,1,7,9,93,0,,,,153.44036982296092,154.06194957541592,,,,,,,,,,,,,,,1,1,2024-10-14_17h29.23.380,audio,2024.1.5,122.30707790928385,
3_con_rate,0.02,3,7,10,94,8,,,,154.86529278196684,154.88651111641374,154.9869290172326,155.01081374140048,155.11123164221934,155.13381578340486,,,,,,,,,,,1,1,2024-10-14_17h29.23.380,audio,2024.1.5,122.30707790928385,
3_con_duration,0.14,3,7,11,95,2,,,,155.93715898995578,156.0874504914187,156.18786839223756,156.33738815840624,156.4378060592251,156.58682228340476,,,,,,,4.wav,157.38517279201187,13.mp4,157.38517279201187,1,1,2024-10-14_17h29.23.380,audio,2024.1.5,122.30707790928385,
6_con_duration,0.02,6,8,0,96,5,,,,159.21387458155513,159.23696732539392,159.33738522621277,159.36127074139367,159.46168864221252,159.4854618664045,159.58587976722336,159.60996165840479,159.71037955922364,159.73330078341823,159.83371868423708,159.85692878341942,,,,,1,1,2024-10-14_17h29.23.380,audio,2024.1.5,122.30707790928385,
6_con_rate,0.02,6,8,1,97,11,,,,160.66027198997034,160.68658445040055,160.7870023512194,160.81049336639407,160.91091126721292,160.93738682539842,161.03780472621727,161.07014461639628,161.17056251721513,161.1945342003979,161.29495210121675,161.31901970040926,,,,,1,1,2024-10-14_17h29.23.380,audio,2024.1.5,122.30707790928385,
5_con_rate,0.02,5,8,2,98,10,,,,162.12236290696018,162.14384203341032,162.24425993422918,162.26785203340987,162.36826993422872,162.39164478341408,162.49206268423293,162.5208862834057,162.62130418422456,162.6444454084063,,,,,,,1,1,2024-10-14_17h29.23.380,audio,2024.1.5,122.30707790928385,
3_con_rate,0.02,3,8,3,99,8,,,,163.44778861495723,163.47135620041226,163.5717741012311,163.59097882541536,163.69139672623422,163.7207026164193,,,,,,,,,,,1,1,2024-10-14_17h29.23.380,audio,2024.1.5,122.30707790928385,
1_con_rate,0.02,1,8,4,100,6,,,,164.5240458229702,164.55333724141528,,,,,,,,,,,,,,,1,1,2024-10-14_17h29.23.380,audio,2024.1.5,122.30707790928385,
4_con_duration,0.08,4,8,5,101,3,,,,165.3566804479662,165.4373602414067,165.53777814222556,165.62076882541587,165.72118672623472,165.80408120039792,165.90449910121677,165.98735553341393,,,,,,,,,1,1,2024-10-14_17h29.23.380,audio,2024.1.5,122.30707790928385,
1_con_duration,0.62,1,8,6,102,0,,,,166.79069873996485,167.42156520041462,,,,,,,,,,,,,,,1,1,2024-10-14_17h29.23.380,audio,2024.1.5,122.30707790928385,
5_con_duration,0.044,5,8,7,103,4,,,,168.22490840696554,168.27082399140053,168.3712418922194,168.42088399141502,168.52130189223388,168.57094715842103,168.6713650592399,168.7208956164046,168.82131351722344,168.8707232004177,,,,,,,1,1,2024-10-14_17h29.23.380,audio,2024.1.5,122.30707790928385,
3_con_duration,0.14,3,8,8,104,2,,,,169.67406640696862,169.82089736639463,169.9213152672135,170.0711579504219,170.17157585124076,170.3210694913956,,,,,,,,,,,1,1,2024-10-14_17h29.23.380,audio,2024.1.5,122.30707790928385,
2_con_rate,0.02,2,8,9,105,7,,,,171.12441269794652,171.1534941584192,171.25391205923805,171.27806032540101,,,,,,,,,,,,,1,1,2024-10-14_17h29.23.380,audio,2024.1.5,122.30707790928385,
2_con_duration,0.26,2,8,10,106,1,,,,172.08140353195193,172.3432692003931,172.44368710121196,172.7045484503993,,,,,,,,,,,,,1,1,2024-10-14_17h29.23.380,audio,2024.1.5,122.30707790928385,
4_con_rate,0.02,4,8,11,107,9,,,,173.50789165695022,173.53750415839895,173.6379220592178,173.67096840841404,173.7713863092329,173.79460232539859,173.89502022621744,173.9210089503991,,,,,5.wav,174.7196600830066,12.mp4,174.7196600830066,1,1,2024-10-14_17h29.23.380,audio,2024.1.5,122.30707790928385,
6_con_rate,0.02,6,9,0,108,11,,,,176.56399553955416,176.58311507540347,176.68353297622232,176.7075359913957,176.80795389221456,176.83792015841172,176.93833805923057,176.97142770040372,177.07184560122258,177.1044454914023,177.20486339222114,177.22387453341216,,,,,1,1,2024-10-14_17h29.23.380,audio,2024.1.5,122.30707790928385,
1_con_duration,0.62,1,9,1,109,0,,,,178.02721773996308,178.65501261640165,,,,,,,,,,,,,,,1,1,2024-10-14_17h29.23.380,audio,2024.1.5,122.30707790928385,
5_con_duration,0.044,5,9,2,110,4,,,,179.45835582295257,179.50446049139427,179.60487839221312,179.65442240841512,179.75484030923397,179.80445957539777,179.90487747621663,179.9544512004155,180.05486910123435,180.10447811641788,,,,,,,1,1,2024-10-14_17h29.23.380,audio,2024.1.5,122.30707790928385,
3_con_rate,0.02,3,9,3,111,8,,,,180.9078213229688,180.93702515841287,181.03744305923172,181.05700711641984,181.1574250172387,181.18763174140767,,,,,,,,,,,1,1,2024-10-14_17h29.23.380,audio,2024.1.5,122.30707790928385,
1_con_rate,0.02,1,9,4,112,6,,,,181.9909749479586,182.02036057541554,,,,,,,,,,,,,,,1,1,2024-10-14_17h29.23.380,audio,2024.1.5,122.30707790928385,
3_con_duration,0.14,3,9,5,113,2,,,,182.82370378196646,182.97142920041514,183.071847101234,183.22145057540328,183.32186847622214,183.46109265840786,,,,,,,,,,,1,1,2024-10-14_17h29.23.380,audio,2024.1.5,122.30707790928385,
2_con_rate,0.02,2,9,6,114,7,,,,184.26443586495878,184.2865112834057,184.38692918422456,184.41071182539744,,,,,,,,,,,,,1,1,2024-10-14_17h29.23.380,audio,2024.1.5,122.30707790928385,
5_con_rate,0.02,5,9,7,115,10,,,,185.21405503194836,185.2351254084002,185.33554330921905,185.35615661639312,185.45657451721198,185.48781686640868,185.58823476722753,185.62116261639457,185.72158051721343,185.74449549141863,,,,,,,1,1,2024-10-14_17h29.23.380,audio,2024.1.5,122.30707790928385,
4_con_rate,0.02,4,9,8,116,9,,,,186.54783869796955,186.5683064083947,186.66872430921356,186.69099274141772,186.79141064223657,186.8207342834008,186.92115218421966,186.95455424142128,,,,,,,,,1,1,2024-10-14_17h29.23.380,audio,2024.1.5,122.30707790928385,
6_con_duration,0.02,6,9,9,117,5,,,,187.7578974479722,187.78721949141763,187.88763739223648,187.91141728341753,188.0118351842364,188.03482570040214,188.135243601221,188.15844599140982,188.25886389222867,188.2786666163971,188.37908451721594,188.40211140839673,,,,,1,1,2024-10-14_17h29.23.380,audio,2024.1.5,122.30707790928385,
4_con_duration,0.08,4,9,10,118,3,,,,189.20545461494766,189.28793224140244,189.3883501422213,189.47126503342005,189.5716829342389,189.65474640840839,189.75516430922724,189.83794928340066,,,,,,,,,1,1,2024-10-14_17h29.23.380,audio,2024.1.5,122.30707790928385,
2_con_duration,0.26,2,9,11,119,1,,,,190.64129248995158,190.9050441584055,191.00546205922436,191.27170099141367,,,,,,,,,5.wav,192.069905500015,5.mp4,192.069905500015,1,1,2024-10-14_17h29.23.380,audio,2024.1.5,122.30707790928385,
6_con_duration,0.02,6,10,0,120,5,,,,193.91748674856498,193.94098920041287,194.04140710123173,194.07125386640254,194.1716717672214,194.19087511639518,194.29129301721403,194.32151932540873,194.42193722622758,194.44484728339884,194.5452651842177,194.5680338254111,,,,,1,1,2024-10-14_17h29.23.380,audio,2024.1.5,122.30707790928385,
2_con_rate,0.02,2,10,1,121,7,,,,195.37137703196203,195.3922562004096,195.49267410122846,195.5212742004165,,,,,,,,,,,,,1,1,2024-10-14_17h29.23.380,audio,2024.1.5,122.30707790928385,
4_con_duration,0.08,4,10,2,122,3,,,,196.32461740696743,196.404628658414,196.50504655923285,196.58816465841082,196.68858255922967,196.77261453341052,196.87303243422937,196.95480057539825,,,,,,,,,1,1,2024-10-14_17h29.23.380,audio,2024.1.5,122.30707790928385,
2_con_duration,0.26,2,10,3,123,1,,,,197.75814378194917,198.0218072414078,198.12222514222665,198.38858820041932,,,,,,,,,,,,,1,1,2024-10-14_17h29.23.380,audio,2024.1.5,122.30707790928385,
1_con_rate,0.02,1,10,4,124,6,,,,199.19193140697024,199.22085995041706,,,,,,,,,,,,,,,1,1,2024-10-14_17h29.23.380,audio,2024.1.5,122.30707790928385,
1_con_duration,0.62,1,10,5,125,0,,,,200.02420315696799,200.6459426583984,,,,,,,,,,,,,,,1,1,2024-10-14_17h29.23.380,audio,2024.1.5,122.30707790928385,
5_con_duration,0.044,5,10,6,126,4,,,,201.44928586494933,201.493370116406,201.59378801722485,201.63812903341895,201.7385469342378,201.78840832541172,201.88882622623058,201.93808978339948,202.03850768421833,202.08834078341314,,,,,,,1,1,2024-10-14_17h29.23.380,audio,2024.1.5,122.30707790928385,
3_con_duration,0.14,3,10,7,127,2,,,,202.89168398996406,203.03842895039415,203.138846851213,203.28845903339388,203.38887693421273,203.53841078340483,,,,,,,,,,,1,1,2024-10-14_17h29.23.380,audio,2024.1.5,122.30707790928385,
5_con_rate,0.02,5,10,8,128,10,,,,204.34175398995575,204.371588116404,204.47200601722287,204.50434478341194,204.6047626842308,204.62854936641233,204.72896726723118,204.75196849139465,204.8523863922135,204.87502236641885,,,,,,,1,1,2024-10-14_17h29.23.380,audio,2024.1.5,122.30707790928385,
6_con_rate,0.02,6,10,9,129,11,,,,205.67836557296977,205.70136261642037,205.80178051723922,205.82548157539858,205.92589947621744,205.94638257541519,206.04680047623404,206.07036653339455,206.1707844342134,206.19410957539512,206.29452747621397,206.31886703341442,,,,,1,1,2024-10-14_17h29.23.380,audio,2024.1.5,122.30707790928385,
4_con_rate,0.02,4,10,10,130,9,,,,207.12221023996534,207.1439462004142,207.24436410123306,207.267723491395,207.36814139221386,207.39153524139837,207.49195314221723,207.52190745040716,,,,,,,,,1,1,2024-10-14_17h29.23.380,audio,2024.1.5,122.30707790928385,
3_con_rate,0.02,3,10,11,131,8,,,,208.32525065695808,208.3542689913971,208.45468689221596,208.47602132539905,208.5764392262179,208.60512882541806,,,,,,,4.wav,209.4038451249944,13.mp4,209.4038451249944,1,1,2024-10-14_17h29.23.380,audio,2024.1.5,122.30707790928385,
5_con_duration,0.044,5,11,0,132,4,,,,211.2373385815532,211.2882878664037,211.38870576722255,211.4384823254164,211.53890022623526,211.5885274084081,211.68894530922697,211.73852849141403,211.83894639223288,211.88835445041477,,,,,,,1,1,2024-10-14_17h29.23.380,audio,2024.1.5,122.30707790928385,
1_con_rate,0.02,1,11,1,133,6,,,,212.6916976569657,212.72156145040353,,,,,,,,,,,,,,,1,1,2024-10-14_17h29.23.380,audio,2024.1.5,122.30707790928385,
6_con_duration,0.02,6,11,2,134,5,,,,213.52490465695445,213.55486190840892,213.65527980922778,213.68843382539634,213.7888517262152,213.80821832540968,213.90863622622854,213.93051924141182,214.03093714223067,214.05562307540967,214.15604097622852,214.188177825397,,,,,1,1,2024-10-14_17h29.23.380,audio,2024.1.5,122.30707790928385,
2_con_duration,0.26,2,11,3,135,1,,,,214.9915210319479,215.25549149141588,215.35590939223474,215.6221974504093,,,,,,,,,,,,,1,1,2024-10-14_17h29.23.380,audio,2024.1.5,122.30707790928385,
2_con_rate,0.02,2,11,4,136,7,,,,216.4255406569602,216.45451245041622,216.55493035123507,216.5742895754025,,,,,,,,,,,,,1,1,2024-10-14_17h29.23.380,audio,2024.1.5,122.30707790928385,
5_con_rate,0.02,5,11,5,137,10,,,,217.37763278195342,217.4055340754072,217.50595197622604,217.53854415840178,217.63896205922063,217.67210540839878,217.77252330921763,217.79585570039634,217.8962736012152,217.91984636640117,,,,,,,1,1,2024-10-14_17h29.23.380,audio,2024.1.5,122.30707790928385,
3_con_rate,0.02,3,11,6,138,8,,,,218.7231895729521,218.74352374141162,218.84394164223048,218.86660611642,218.96702401723886,218.99011549142014,,,,,,,,,,,1,1,2024-10-14_17h29.23.380,audio,2024.1.5,122.30707790928385,
1_con_duration,0.62,1,11,7,139,0,,,,219.79345869797106,220.4126987004216,,,,,,,,,,,,,,,1,1,2024-10-14_17h29.23.380,audio,2024.1.5,122.30707790928385,
6_con_rate,0.02,6,11,8,140,11,,,,221.21604190697252,221.23735065840592,221.33776855922477,221.36045961641648,221.46087751723533,221.4832015334192,221.58361943423805,221.60620745039486,221.70662535121372,221.73864099139755,221.8390588922164,221.8719624083984,,,,,1,1,2024-10-14_17h29.23.380,audio,2024.1.5,122.30707790928385,
3_con_duration,0.14,3,11,9,141,2,,,,222.6753056149493,222.8222350754164,222.92265297623524,223.07227320041565,223.1726911012345,223.31403974141867,,,,,,,,,,,1,1,2024-10-14_17h29.23.380,audio,2024.1.5,122.30707790928385,
4_con_rate,0.02,4,11,10,142,9,,,,224.1173829479696,224.14010886639298,224.24052676721183,224.2715477414109,224.37196564222975,224.39553095040318,224.49594885122204,224.5220292414102,,,,,,,,,1,1,2024-10-14_17h29.23.380,audio,2024.1.5,122.30707790928385,
4_con_duration,0.08,4,11,11,143,3,,,,225.32537244796112,225.40527161639474,225.5056895172136,225.58867978340422,225.68909768422307,225.77209032540267,225.87250822622153,225.95547595041862,,,,,5.wav,226.75446895800997,12.mp4,226.75446895800997,1,1,2024-10-14_17h29.23.380,audio,2024.1.5,122.30707790928385,
6_con_rate,0.02,6,12,0,144,11,,,,228.5843457485549,228.60704153340484,228.7074594342237,228.73879765839374,228.8392155592126,228.8583977414033,228.95881564222216,228.9890582833992,229.08947618421806,229.1223184084025,229.22273630922135,229.25539507540233,,,,,1,1,2024-10-14_17h29.23.380,audio,2024.1.5,122.30707790928385,
5_con_duration,0.044,5,12,1,145,4,,,,230.05873828195325,230.10496049139473,230.2053783922136,230.25539007539336,230.35580797621222,230.40538545041053,230.5058033512294,230.55586224140424,230.6562801422231,230.70549961640208,,,,,,,1,1,2024-10-14_17h29.23.380,audio,2024.1.5,122.30707790928385,
4_con_rate,0.02,4,12,2,146,9,,,,231.508842822953,231.5382315334078,231.63864943422666,231.66224378339538,231.76266168421424,231.7853003254073,231.88571822622615,231.9085274084151,,,,,,,,,1,1,2024-10-14_17h29.23.380,audio,2024.1.5,122.30707790928385,
1_con_rate,0.02,1,12,3,147,6,,,,232.71187061496602,232.7381047414179,,,,,,,,,,,,,,,1,1,2024-10-14_17h29.23.380,audio,2024.1.5,122.30707790928385,
3_con_duration,0.14,3,12,4,148,2,,,,233.54144794796883,233.68909407541796,233.7895119762368,233.9391447834001,234.03956268421896,234.18918982541945,,,,,,,,,,,1,1,2024-10-14_17h29.23.380,audio,2024.1.5,122.30707790928385,
5_con_rate,0.02,5,12,5,149,10,,,,234.99253303197037,235.0215799084195,235.12199780923837,235.1447936584096,235.24521155922847,235.26445174139516,235.36486964221402,235.38926403341756,235.48968193423642,235.5223462834052,,,,,,,1,1,2024-10-14_17h29.23.380,audio,2024.1.5,122.30707790928385,
3_con_rate,0.02,3,12,6,150,8,,,,236.32568948995612,236.3555178254115,236.45593572623036,236.47509190839773,236.57550980921658,236.59476778339885,,,,,,,,,,,1,1,2024-10-14_17h29.23.380,audio,2024.1.5,122.30707790928385,
4_con_duration,0.08,4,12,7,151,3,,,,237.39811098994977,237.47771090840396,237.57812880922282,237.6611030334112,237.76152093423005,237.844277908394,237.94469580921285,238.02755374142143,,,,,,,,,1,1,2024-10-14_17h29.23.380,audio,2024.1.5,122.30707790928385,
6_con_duration,0.02,6,12,8,152,5,,,,238.83089694797235,238.85246249140764,238.9528803922265,238.975804116411,239.07622201722987,239.10510586639575,239.2055237672146,239.22915911640447,239.32957701722333,239.3514372003934,239.45185510121226,239.47506845041934,,,,,1,1,2024-10-14_17h29.23.380,audio,2024.1.5,122.30707790928385,
1_con_duration,0.62,1,12,9,153,0,,,,240.27841165697026,240.90631461642042,,,,,,,,,,,,,,,1,1,2024-10-14_17h29.23.380,audio,2024.1.5,122.30707790928385,
2_con_rate,0.02,2,12,10,154,7,,,,241.70965782297134,241.7383787004015,241.83879660122037,241.86222520040755,,,,,,,,,,,,,1,1,2024-10-14_17h29.23.380,audio,2024.1.5,122.30707790928385,
2_con_duration,0.26,2,12,11,155,1,,,,242.66556840695847,242.92816611642192,243.02858401724077,243.2894100334175,,,,,,,,,5.wav,244.08834512499743,5.mp4,244.08834512499743,1,1,2024-10-14_17h29.23.380,audio,2024.1.5,122.30707790928385,
3_con_rate,0.02,3,13,0,156,8,,,,245.93982508155167,245.96280940841243,246.06322730923128,246.0885774084105,246.18899530922934,246.212231616411,,,,,,,,,,,1,1,2024-10-14_17h29.23.380,audio,2024.1.5,122.30707790928385,
2_con_rate,0.02,2,13,1,157,7,,,,247.01557482296192,247.03638857539917,247.13680647621803,247.15979836640471,,,,,,,,,,,,,1,1,2024-10-14_17h29.23.380,audio,2024.1.5,122.30707790928385,
2_con_duration,0.26,2,13,2,158,1,,,,247.96314157295564,248.22811628340568,248.32853418422454,248.58960778339824,,,,,,,,,,,,,1,1,2024-10-14_17h29.23.380,audio,2024.1.5,122.30707790928385,
5_con_rate,0.02,5,13,3,159,10,,,,249.39295098994916,249.42297940841817,249.52339730923703,249.55599936640064,249.6564172672195,249.68945224141643,249.7898701422353,249.82279253341548,249.92321043423433,249.94605986640963,,,,,,,1,1,2024-10-14_17h29.23.380,audio,2024.1.5,122.30707790928385,
1_con_rate,0.02,1,13,4,160,6,,,,250.74940307296055,250.76921111640112,,,,,,,,,,,,,,,1,1,2024-10-14_17h29.23.380,audio,2024.1.5,122.30707790928385,
1_con_duration,0.62,1,13,5,161,0,,,,251.57255432295204,252.1973422834213,,,,,,,,,,,,,,,1,1,2024-10-14_17h29.23.380,audio,2024.1.5,122.30707790928385,
5_con_duration,0.044,5,13,6,162,4,,,,253.00068548997223,253.04652778339513,253.146945684214,253.19417903340363,253.29459693422248,253.33899257539596,253.43941047621482,253.4895683664159,253.58998626723476,253.63927582541655,,,,,,,1,1,2024-10-14_17h29.23.380,audio,2024.1.5,122.30707790928385,
4_con_duration,0.08,4,13,7,163,3,,,,254.44261903196747,254.52269607541675,254.6231139762356,254.7061171164183,254.80653501723717,254.88933565840998,254.98975355922883,255.0727509913937,,,,,,,,,1,1,2024-10-14_17h29.23.380,audio,2024.1.5,122.30707790928385,
3_con_duration,0.14,3,13,8,164,2,,,,255.8760941979446,256.0228978254105,256.12331572622935,256.2729397004092,256.37335760122807,256.5229909504211,,,,,,,,,,,1,1,2024-10-14_17h29.23.380,audio,2024.1.5,122.30707790928385,
4_con_rate,0.02,4,13,9,165,9,,,,257.32633415697205,257.3563387834089,257.45675668422774,257.4896367414127,257.59005464223156,257.62222220039405,257.7226401012129,257.746406158412,,,,,,,,,1,1,2024-10-14_17h29.23.380,audio,2024.1.5,122.30707790928385,
6_con_duration,0.02,6,13,10,166,5,,,,258.54974936496296,258.57286757540135,258.6732854762202,258.6964590334188,258.7968769342377,258.8207065754192,258.92112447623805,258.944871283407,259.04528918422585,259.073133241394,259.17355114221283,259.2061259083945,,,,,1,1,2024-10-14_17h29.23.380,audio,2024.1.5,122.30707790928385,
6_con_rate,0.02,6,13,11,167,11,,,,260.00946911494543,260.039300116399,260.13971801721783,260.1627506584133,260.26316855923216,260.2859859504184,260.3864038512373,260.4091082414176,260.50952614223644,260.53892615840016,260.639344059219,260.66281407539793,1.wav,261.4614047500072,16.mp4,261.4614047500072,1,1,2024-10-14_17h29.23.380,audio,2024.1.5,122.30707790928385,
4_con_duration,0.08,4,14,0,168,3,,,,263.30546320657015,263.3896244914009,263.4900423922198,263.57283353340756,263.6732514342264,263.75614382539936,263.8565617262182,263.9394772833999,,,,,,,,,1,1,2024-10-14_17h29.23.380,audio,2024.1.5,122.30707790928385,
6_con_rate,0.02,6,14,1,169,11,,,,264.7428204899509,264.77228582540704,264.8727037262259,264.89195303340387,264.9923709342227,265.0228826164181,265.12330051723694,265.14675382540156,265.2471717262204,265.26941086640875,265.3698287672276,265.3927340334136,,,,,1,1,2024-10-14_17h29.23.380,audio,2024.1.5,122.30707790928385,
5_con_duration,0.044,5,14,2,170,4,,,,266.19607723996455,266.2399195754057,266.34033747622453,266.3895177833998,266.48993568421866,266.5394962414081,266.6399141422269,266.68974024139754,266.7901581422164,266.8396114503936,,,,,,,1,1,2024-10-14_17h29.23.380,audio,2024.1.5,122.30707790928385,
5_con_rate,0.02,5,14,3,171,10,,,,267.64295465694454,267.67231474139555,267.7727326422144,267.79686586641185,267.8972837672307,267.91919782540356,268.0196157262224,268.04216786640757,268.1425857672264,268.1727283664019,,,,,,,1,1,2024-10-14_17h29.23.380,audio,2024.1.5,122.30707790928385,
3_con_duration,0.14,3,14,4,172,2,,,,268.97607157295283,269.12332378340363,269.2237416842225,269.37333853339953,269.4737564342184,269.623199075411,,,,,,,,,,,1,1,2024-10-14_17h29.23.380,audio,2024.1.5,122.30707790928385,
1_con_rate,0.02,1,14,5,173,6,,,,270.42654228196193,270.4556983253948,,,,,,,,,,,,,,,1,1,2024-10-14_17h29.23.380,audio,2024.1.5,122.30707790928385,
1_con_duration,0.62,1,14,6,174,0,,,,271.25904153194574,271.88035440841634,,,,,,,,,,,,,,,1,1,2024-10-14_17h29.23.380,audio,2024.1.5,122.30707790928385,
6_con_duration,0.02,6,14,7,175,5,,,,272.6836976149673,272.7053401584068,272.80575805922564,272.82955774141885,272.9299756422377,272.95254195040036,273.0529598512192,273.07596036641337,273.1763782672322,273.20589070040444,273.3063086012233,273.3292862834147,,,,,1,1,2024-10-14_17h29.23.380,audio,2024.1.5,122.30707790928385,
2_con_duration,0.26,2,14,8,176,1,,,,274.13262948996567,274.39538861640324,274.4958065172221,274.75686161640044,,,,,,,,,,,,,1,1,2024-10-14_17h29.23.380,audio,2024.1.5,122.30707790928385,
4_con_rate,0.02,4,14,9,177,9,,,,275.5602048229514,275.5893328253966,275.68975072621544,275.712836825414,275.81325472623286,275.83608386640265,275.9365017672215,275.959779033417,,,,,,,,,1,1,2024-10-14_17h29.23.380,audio,2024.1.5,122.30707790928385,
2_con_rate,0.02,2,14,10,178,7,,,,276.76312223996797,276.78907465839586,276.8894925592147,276.9127163254103,,,,,,,,,,,,,1,1,2024-10-14_17h29.23.380,audio,2024.1.5,122.30707790928385,
3_con_rate,0.02,3,14,11,179,8,,,,277.71605953196126,277.7373718663963,277.83778976721516,277.8611952003936,277.96161310121244,277.98935507541466,,,,,,,4.wav,278.7877343330183,13.mp4,278.7877343330183,1,1,2024-10-14_17h29.23.380,audio,2024.1.5,122.30707790928385,
4_con_duration,0.08,4,15,0,180,3,,,,280.6062850395625,280.6900762834208,280.79049418423966,280.87326749141505,280.9736853922339,281.0566393254063,281.15705722622516,281.2436255753943,,,,,,,,,1,1,2024-10-14_17h29.23.380,audio,2024.1.5,122.30707790928385,
6_con_duration,0.02,6,15,1,181,5,,,,282.0469687819452,282.07304482541224,282.1734627262311,282.2069549504173,282.30737285123615,282.3395656164008,282.4399835172197,282.4636845334113,282.56410243423016,282.5867067414016,282.68712464222045,282.7105430334137,,,,,1,1,2024-10-14_17h29.23.380,audio,2024.1.5,122.30707790928385,
6_con_rate,0.02,6,15,2,182,11,,,,283.5138862399647,283.5394483254146,283.63986622623344,283.6629037414183,283.76332164223714,283.78619428340755,283.8866121842264,283.90990165840196,284.0103195592208,284.03996332540703,284.1403812262259,284.17316378339603,,,,,1,1,2024-10-14_17h29.23.380,audio,2024.1.5,122.30707790928385,
1_con_rate,0.02,1,15,3,183,6,,,,284.976506989947,285.0062181584159,,,,,,,,,,,,,,,1,1,2024-10-14_17h29.23.380,audio,2024.1.5,122.30707790928385,
5_con_rate,0.02,5,15,4,184,10,,,,285.80956136496684,285.8402552834101,285.94067318422896,285.9734660754126,286.07388397623146,286.10624507541945,286.2066629762383,286.2269924084045,286.32741030922335,286.35614032540764,,,,,,,1,1,2024-10-14_17h29.23.380,audio,2024.1.5,122.30707790928385,
3_con_duration,0.14,3,15,5,185,2,,,,287.1594835319586,287.3069335754059,287.40735147622473,287.55696807540664,287.6573859762255,287.8069682004076,,,,,,,,,,,1,1,2024-10-14_17h29.23.380,audio,2024.1.5,122.30707790928385,
2_con_duration,0.26,2,15,6,186,1,,,,288.61031140695854,288.87377628341494,288.9741941842338,289.2405112414068,,,,,,,,,,,,,1,1,2024-10-14_17h29.23.380,audio,2024.1.5,122.30707790928385,
4_con_rate,0.02,4,15,7,187,9,,,,290.04385444795776,290.07368257540804,290.1741004762269,290.1931619084004,290.29357980921924,290.32345770041286,290.4238756012317,290.4474462003942,,,,,,,,,1,1,2024-10-14_17h29.23.380,audio,2024.1.5,122.30707790928385,
2_con_rate,0.02,2,15,8,188,7,,,,291.25078940694516,291.27740303340545,291.3778209342243,291.4023768664134,,,,,,,,,,,,,1,1,2024-10-14_17h29.23.380,audio,2024.1.5,122.30707790928385,
5_con_duration,0.044,5,15,9,189,4,,,,292.20572007296437,292.2568810333993,292.35729893421814,292.4063374504127,292.50675535123156,292.55629453340373,292.6567124342226,292.70692636641036,292.8073442672292,292.85705770040806,,,,,,,1,1,2024-10-14_17h29.23.380,audio,2024.1.5,122.30707790928385,
3_con_rate,0.02,3,15,10,190,8,,,,293.660400906959,293.68955574141876,293.7899736422376,293.8136203254195,293.91403822623835,293.93648257541065,,,,,,,,,,,1,1,2024-10-14_17h29.23.380,audio,2024.1.5,122.30707790928385,
1_con_duration,0.62,1,15,11,191,0,,,,294.7398257819616,295.36298528340706,,,,,,,,,,,1.wav,296.1618029170204,16.mp4,296.1618029170204,1,1,2024-10-14_17h29.23.380,audio,2024.1.5,122.30707790928385,
1_con_rate,0.02,1,16,0,192,6,,,,297.9969486645656,298.0191788254102,,,,,,,,,,,,,,,1,1,2024-10-14_17h29.23.380,audio,2024.1.5,122.30707790928385,
2_con_duration,0.26,2,16,1,193,1,,,,298.82252203196117,299.0905844914174,299.19100239223627,299.4573349504004,,,,,,,,,,,,,1,1,2024-10-14_17h29.23.380,audio,2024.1.5,122.30707790928385,
1_con_duration,0.62,1,16,2,194,0,,,,300.26067815695137,300.88152261640937,,,,,,,,,,,,,,,1,1,2024-10-14_17h29.23.380,audio,2024.1.5,122.30707790928385,
6_con_duration,0.02,6,16,3,195,5,,,,301.6848658229603,301.7064608664165,301.80687876723533,301.829454825414,301.9298727262329,301.9527747834014,302.0531926842203,302.07677795040365,302.1771958512225,302.2065283253993,302.30694622621814,302.33041653340626,,,,,1,1,2024-10-14_17h29.23.380,audio,2024.1.5,122.30707790928385,
6_con_rate,0.02,6,16,4,196,11,,,,303.1337597399572,303.1570980754128,303.2575159762317,303.2898796164169,303.39029751723575,303.41353195042177,303.5139498512406,303.53809999139924,303.6385178922181,303.6626236584067,303.76304155922554,303.785679533417,,,,,1,1,2024-10-14_17h29.23.380,audio,2024.1.5,122.30707790928385,
5_con_rate,0.02,5,16,5,197,10,,,,304.58902273996796,304.6103838254145,304.71080172623334,304.7405252004188,304.84094310123766,304.8637382834073,304.96415618422617,304.98684211640796,305.0872600172268,305.1102199504181,,,,,,,1,1,2024-10-14_17h29.23.380,audio,2024.1.5,122.30707790928385,
3_con_rate,0.02,3,16,6,198,8,,,,305.9135631569691,305.93986986639504,306.0402877672139,306.0630651584157,306.1634830592346,306.19042128339936,,,,,,,,,,,1,1,2024-10-14_17h29.23.380,audio,2024.1.5,122.30707790928385,
3_con_duration,0.14,3,16,7,199,2,,,,306.9937644899503,307.1401980753959,307.24061597621477,307.3908680334076,307.4912859342265,307.6407669083943,,,,,,,,,,,1,1,2024-10-14_17h29.23.380,audio,2024.1.5,122.30707790928385,
4_con_duration,0.08,4,16,8,200,3,,,,308.44411011494526,308.5237796164089,308.62419751722774,308.70725724139777,308.8076751422166,308.89063757539554,308.9910554762144,309.0738278664154,,,,,,,,,1,1,2024-10-14_17h29.23.380,audio,2024.1.5,122.30707790928385,
4_con_rate,0.02,4,16,9,201,9,,,,309.87717107296635,309.90743049141895,310.0078483922378,310.0400950754207,310.14051297623956,310.1641212003975,310.26453910121637,310.290070408411,,,,,,,,,1,1,2024-10-14_17h29.23.380,audio,2024.1.5,122.30707790928385,
5_con_duration,0.044,5,16,10,202,4,,,,311.09341361496195,311.1405337004195,311.24095160123835,311.2907074503979,311.3911253512168,311.44047632540753,311.5408942262264,311.5904900754191,311.69090797623795,311.7409726583952,,,,,,,1,1,2024-10-14_17h29.23.380,audio,2024.1.5,122.30707790928385,
2_con_rate,0.02,2,16,11,203,7,,,,312.54431586494616,312.5737995753967,312.6742174762156,312.7072618253966,,,,,,,,,5.wav,313.5058523330081,5.mp4,313.5058523330081,1,1,2024-10-14_17h29.23.380,audio,2024.1.5,122.30707790928385,
1_con_duration,0.62,1,17,0,204,0,,,,315.3248457485694,315.94861199140144,,,,,,,,,,,,,,,1,1,2024-10-14_17h29.23.380,audio,2024.1.5,122.30707790928385,
6_con_rate,0.02,6,17,1,205,11,,,,316.7519551979524,316.7735409504181,316.873958851237,316.8966177004128,316.99703560123163,317.02040215841555,317.1208200592344,317.14424632540033,317.2446642262192,317.2739871584141,317.37440505923297,317.39732982542193,,,,,1,1,2024-10-14_17h29.23.380,audio,2024.1.5,122.30707790928385,
3_con_duration,0.14,3,17,2,206,2,,,,318.2006730319729,318.3409573664045,318.44137526722335,318.59104386639376,318.6914617672126,318.84095336640314,,,,,,,,,,,1,1,2024-10-14_17h29.23.380,audio,2024.1.5,122.30707790928385,
1_con_rate,0.02,1,17,3,207,6,,,,319.6442965729541,319.6733881164197,,,,,,,,,,,,,,,1,1,2024-10-14_17h29.23.380,audio,2024.1.5,122.30707790928385,
4_con_duration,0.08,4,17,4,208,3,,,,320.47673132297064,320.557589950398,320.65800785121684,320.74074811640605,320.8411660172249,320.9241520754091,321.02456997622795,321.1074602413952,,,,,,,,,1,1,2024-10-14_17h29.23.380,audio,2024.1.5,122.30707790928385,
5_con_duration,0.044,5,17,5,209,4,,,,321.91080344794614,321.9574393254094,322.05785722622824,322.1074827004137,322.21626875963415,322.26315915841553,322.3635770592344,322.40700749139944,322.5074253922183,322.5575802834152,,,,,,,1,1,2024-10-14_17h29.23.380,audio,2024.1.5,122.30707790928385,
4_con_rate,0.02,4,17,6,210,9,,,,323.3609234899661,323.3903542833956,323.49077218421445,323.515178908399,323.61559680921783,323.63933232541024,323.7397502262291,323.76274786640136,,,,,,,,,1,1,2024-10-14_17h29.23.380,audio,2024.1.5,122.30707790928385,
6_con_duration,0.02,6,17,7,211,5,,,,324.5660910729523,324.58716178339967,324.6875796842185,324.7074907003931,324.807908601212,324.8313798254036,324.93179772622244,324.9553597834107,325.05577768422955,325.0792074083962,325.17962530921506,325.20789803341324,,,,,1,1,2024-10-14_17h29.23.380,audio,2024.1.5,122.30707790928385,
2_con_rate,0.02,2,17,8,212,7,,,,326.0112412399642,326.04072445041095,326.1411423512298,326.1648396584002,,,,,,,,,,,,,1,1,2024-10-14_17h29.23.380,audio,2024.1.5,122.30707790928385,
5_con_rate,0.02,5,17,9,213,10,,,,326.96818286495113,326.98938165841685,327.0897995592357,327.1126492414129,327.21306714223175,327.24128428341066,327.3417021842295,327.364289616418,327.46470751723683,327.48767428339636,,,,,,,1,1,2024-10-14_17h29.23.380,audio,2024.1.5,122.30707790928385,
2_con_duration,0.26,2,17,10,214,1,,,,328.2910174899473,328.5581389504165,328.65855685123535,328.9245796584088,,,,,,,,,,,,,1,1,2024-10-14_17h29.23.380,audio,2024.1.5,122.30707790928385,
3_con_rate,0.02,3,17,11,215,8,,,,329.72792286495974,329.7574677834142,329.85788568423305,329.8810687834135,329.9814866842324,330.0038904504123,,,,,,,4.wav,330.80234925000696,13.mp4,330.80234925000696,1,1,2024-10-14_17h29.23.380,audio,2024.1.5,122.30707790928385,
4_con_rate,0.02,4,18,0,216,9,,,,332.63948624857005,332.6626846584055,332.76310255922436,332.7860487834056,332.88646668422444,332.9096434504114,333.01006135123026,333.04110853339955,,,,,,,,,1,1,2024-10-14_17h29.23.380,audio,2024.1.5,122.30707790928385,
3_con_rate,0.02,3,18,1,217,8,,,,333.8444517399505,333.87430882542105,333.9747267262399,334.00771753339507,334.1081354342139,334.14154478340936,,,,,,,,,,,1,1,2024-10-14_17h29.23.380,audio,2024.1.5,122.30707790928385,
2_con_rate,0.02,2,18,2,218,7,,,,334.9448879899603,334.97385486641144,335.0742727672303,335.0969475754042,,,,,,,,,,,,,1,1,2024-10-14_17h29.23.380,audio,2024.1.5,122.30707790928385,
5_con_duration,0.044,5,18,3,219,4,,,,335.90029078195516,335.946402658397,336.04682055921586,336.0906592414045,336.1910771422234,336.24060682540005,336.3410247262189,336.39145570039693,336.4918736012158,336.541163283409,,,,,,,1,1,2024-10-14_17h29.23.380,audio,2024.1.5,122.30707790928385,
3_con_duration,0.14,3,18,4,220,2,,,,337.34450648995994,337.49139765840084,337.5918155592197,337.7413608664152,337.8417787672341,337.9913264084113,,,,,,,,,,,1,1,2024-10-14_17h29.23.380,audio,2024.1.5,122.30707790928385,
1_con_rate,0.02,1,18,5,221,6,,,,338.79466961496223,338.82392832541666,,,,,,,,,,,,,,,1,1,2024-10-14_17h29.23.380,audio,2024.1.5,122.30707790928385,
5_con_rate,0.02,5,18,6,222,10,,,,339.6272715319676,339.65793736640774,339.7583552672266,339.79124711641055,339.8916650172294,339.92398657540036,340.0244044762192,340.0485481584125,340.1489660592313,340.171145200418,,,,,,,1,1,2024-10-14_17h29.23.380,audio,2024.1.5,122.30707790928385,
2_con_duration,0.26,2,18,7,223,1,,,,340.97448840696893,341.24146195042124,341.3418798512401,341.60815082540796,,,,,,,,,,,,,1,1,2024-10-14_17h29.23.380,audio,2024.1.5,122.30707790928385,
6_con_rate,0.02,6,18,8,224,11,,,,342.4114940319589,342.4414836164011,342.54190151721997,342.57457940840106,342.6749973092199,342.7081905753963,342.80860847621517,342.8414912834211,342.94190918423993,342.9747810334171,343.07519893423597,343.09801186639527,,,,,1,1,2024-10-14_17h29.23.380,audio,2024.1.5,122.30707790928385,
4_con_duration,0.08,4,18,9,225,3,,,,343.9013550729462,343.9913112414157,344.09172914223456,344.17451811640933,344.2749360172282,344.3581577834062,344.4585756842251,344.541330741407,,,,,,,,,1,1,2024-10-14_17h29.23.380,audio,2024.1.5,122.30707790928385,
6_con_duration,0.02,6,18,10,226,5,,,,345.344673947958,345.37405920041203,345.4744771012309,345.4981998663949,345.59861776721374,345.6222975334182,345.72271543423705,345.7461852834182,345.84660318423704,345.87407107541515,345.974488976234,345.99844982539946,,,,,1,1,2024-10-14_17h29.23.380,audio,2024.1.5,122.30707790928385,
1_con_duration,0.62,1,18,11,227,0,,,,346.8017930319504,347.42513845041105,,,,,,,,,,,1.wav,348.2250988330052,16.mp4,348.2250988330052,1,1,2024-10-14_17h29.23.380,audio,2024.1.5,122.30707790928385,
4_con_duration,0.08,4,19,0,228,3,,,,350.06646228956527,350.1468726584077,350.24729055922654,350.3301317004167,350.43054960123555,350.51355582540566,350.6139737262245,350.6967760754138,,,,,,,,,1,1,2024-10-14_17h29.23.380,audio,2024.1.5,122.30707790928385,
6_con_duration,0.02,6,19,1,229,5,,,,351.50011928196477,351.52086040841243,351.6212783092313,351.6444322004187,351.74485010123755,351.77429095039554,351.8747088512144,351.8982085754193,351.99862647623814,352.02141857540994,352.1218364762288,352.14503240839406,,,,,1,1,2024-10-14_17h29.23.380,audio,2024.1.5,122.30707790928385,
1_con_rate,0.02,1,19,2,230,6,,,,352.948375614945,352.9750571583951,,,,,,,,,,,,,,,1,1,2024-10-14_17h29.23.380,audio,2024.1.5,122.30707790928385,
6_con_rate,0.02,6,19,3,231,11,,,,353.77840036494604,353.80765424139975,353.9080721422186,353.9316649084009,354.03208280921973,354.0559051584074,354.1563230592263,354.17907761640674,354.2794955172256,354.3081716164103,354.40858951722913,354.4316074503964,,,,,1,1,2024-10-14_17h29.23.380,audio,2024.1.5,122.30707790928385,
2_con_rate,0.02,2,19,4,232,7,,,,355.2349506569474,355.25763890840756,355.3580568092264,355.3811540754192,,,,,,,,,,,,,1,1,2024-10-14_17h29.23.380,audio,2024.1.5,122.30707790928385,
4_con_rate,0.02,4,19,5,233,9,,,,356.18449728197015,356.2055634084187,356.30598130923755,356.32948953341986,356.4299074342387,356.4524154084007,356.5528333092196,356.57403182541896,,,,,,,,,1,1,2024-10-14_17h29.23.380,audio,2024.1.5,122.30707790928385,
1_con_duration,0.62,1,19,6,234,0,,,,357.3773750319699,357.99892574142143,,,,,,,,,,,,,,,1,1,2024-10-14_17h29.23.380,audio,2024.1.5,122.30707790928385,
3_con_rate,0.02,3,19,7,235,8,,,,358.8022689479724,358.8243782834121,358.92479618423096,358.9486315334012,359.0490494342201,359.0719284914172,,,,,,,,,,,1,1,2024-10-14_17h29.23.380,audio,2024.1.5,122.30707790928385,
3_con_duration,0.14,3,19,8,236,2,,,,359.8752716979682,360.02537690840256,360.1257948092214,360.27522086641113,360.37563876723,360.5251782003994,,,,,,,,,,,1,1,2024-10-14_17h29.23.380,audio,2024.1.5,122.30707790928385,
5_con_rate,0.02,5,19,9,237,10,,,,361.32852140695036,361.3576723664097,361.45809026722856,361.4819552414207,361.58237314223953,361.6047044913954,361.70512239221426,361.7289697834145,361.8293876842334,361.858407700414,,,,,,,1,1,2024-10-14_17h29.23.380,audio,2024.1.5,122.30707790928385,
2_con_duration,0.26,2,19,10,238,1,,,,362.6617509069649,362.92550382539923,363.0259217262181,363.29223961640093,,,,,,,,,,,,,1,1,2024-10-14_17h29.23.380,audio,2024.1.5,122.30707790928385,
5_con_duration,0.044,5,19,11,239,4,,,,364.0955828229519,364.1423194503965,364.24273735121534,364.2917401584069,364.3921580592258,364.4412138254062,364.54163172622503,364.5918589083973,364.69227680921614,364.7419023253984,,,1.wav,365.540204000019,15.mp4,365.540204000019,1,1,2024-10-14_17h29.23.380,audio,2024.1.5,122.30707790928385,
1_con_rate,0.02,1,20,0,240,6,,,,367.3669929985423,367.38966782540376,,,,,,,,,,,,,,,1,1,2024-10-14_17h29.23.380,audio,2024.1.5,122.30707790928385,
2_con_duration,0.26,2,20,1,241,1,,,,368.1930110319547,368.45888403341235,368.5593019342312,368.82563911641193,,,,,,,,,,,,,1,1,2024-10-14_17h29.23.380,audio,2024.1.5,122.30707790928385,
2_con_rate,0.02,2,20,2,242,7,,,,369.6289823229629,369.657929033399,369.75834693421785,369.79207157539497,,,,,,,,,,,,,1,1,2024-10-14_17h29.23.380,audio,2024.1.5,122.30707790928385,
1_con_duration,0.62,1,20,3,243,0,,,,370.5954147819459,371.2161926584173,,,,,,,,,,,,,,,1,1,2024-10-14_17h29.23.380,audio,2024.1.5,122.30707790928385,
6_con_duration,0.02,6,20,4,244,5,,,,372.01953586496825,372.04028411641195,372.1407020172308,372.16297370042014,372.263391601239,372.2913076584024,372.39172555922124,372.4150223254197,372.5154402262386,372.5378829084017,372.63830080922054,372.66189349140916,,,,,1,1,2024-10-14_17h29.23.380,audio,2024.1.5,122.30707790928385,
3_con_rate,0.02,3,20,5,245,8,,,,373.4652366979601,373.4914278253942,373.5918457262131,373.61096582539324,373.7113837262121,373.7418711164006,,,,,,,,,,,1,1,2024-10-14_17h29.23.380,audio,2024.1.5,122.30707790928385,
4_con_duration,0.08,4,20,6,246,3,,,,374.54521432295155,374.625300283407,374.72571818422585,374.80874515840844,374.9091630592273,374.9920551584015,375.09247305922037,375.17534520041374,,,,,,,,,1,1,2024-10-14_17h29.23.380,audio,2024.1.5,122.30707790928385,
5_con_duration,0.044,5,20,7,247,4,,,,375.9786884069647,376.0252250754071,376.12564297622595,376.1753877004172,376.2758056012361,376.3254252004059,376.42584310122476,376.4758969084156,376.5763148092345,376.62533570041126,,,,,,,1,1,2024-10-14_17h29.23.380,audio,2024.1.5,122.30707790928385,
6_con_rate,0.02,6,20,8,248,11,,,,377.4286789069622,377.45819553340846,377.5586134342273,377.59147470040773,377.6918926012266,377.71554878340396,377.8159666842228,377.8420463664021,377.94246426722094,377.97490245040683,378.0753203512257,378.10823645041967,,,,,1,1,2024-10-14_17h29.23.380,audio,2024.1.5,122.30707790928385,
5_con_rate,0.02,5,20,9,249,10,,,,378.9115796569706,378.94137915841713,379.041797059236,379.06449807540923,379.1649159762281,379.18728624139624,379.2877041422151,379.30806153341257,379.4084794342314,379.4324939914019,,,,,,,1,1,2024-10-14_17h29.23.380,audio,2024.1.5,122.30707790928385,
3_con_duration,0.14,3,20,10,250,2,,,,380.23583719795283,380.37560565840397,380.4760235592228,380.6257651163993,380.72618301721815,380.8756458254153,,,,,,,,,,,1,1,2024-10-14_17h29.23.380,audio,2024.1.5,122.30707790928385,
4_con_rate,0.02,4,20,11,251,9,,,,381.67898903196624,381.70875803341335,381.8091759342322,381.84233428340815,381.942752184227,381.97560720041804,382.0760251012369,382.09918286640607,,,,,5.wav,382.8980735420191,12.mp4,382.8980735420191,1,1,2024-10-14_17h29.23.380,audio,2024.1.5,122.30707790928385,
2_con_rate,0.02,2,21,0,252,7,,,,384.7251520395454,384.74826024141805,384.8486781422369,384.8722856584151,,,,,,,,,,,,,1,1,2024-10-14_17h29.23.380,audio,2024.1.5,122.30707790928385,
5_con_duration,0.044,5,21,1,253,4,,,,385.67562886496603,385.725806075419,385.8262239762378,385.87564020040156,385.9760581012204,386.02491153340964,386.1253294342285,386.17561845039893,386.2760363512178,386.32557595041874,,,,,,,1,1,2024-10-14_17h29.23.380,audio,2024.1.5,122.30707790928385,
2_con_duration,0.26,2,21,2,254,1,,,,387.1289191569697,387.39259728342006,387.4930151842389,387.75929670039625,,,,,,,,,,,,,1,1,2024-10-14_17h29.23.380,audio,2024.1.5,122.30707790928385,
4_con_rate,0.02,4,21,3,255,9,,,,388.5626399069472,388.5921692834032,388.6925871842221,388.72573490840443,388.8261528092233,388.8585710334097,388.95898893422856,388.98230465840027,,,,,,,,,1,1,2024-10-14_17h29.23.380,audio,2024.1.5,122.30707790928385,
1_con_rate,0.02,1,21,4,256,6,,,,389.7856478649512,389.8090843253973,,,,,,,,,,,,,,,1,1,2024-10-14_17h29.23.380,audio,2024.1.5,122.30707790928385,
6_con_duration,0.02,6,21,5,257,5,,,,390.61242753194824,390.64173415839616,390.742152059215,390.765288491422,390.86570639224084,390.88828345039803,390.9887013512169,391.0124057834124,391.1128236842313,391.14228599141063,391.2427038922295,391.2661773664091,,,,,1,1,2024-10-14_17h29.23.380,audio,2024.1.5,122.30707790928385,
3_con_duration,0.14,3,21,6,258,2,,,,392.0695205729601,392.2091028254159,392.3095207262348,392.459331116415,392.55974901723386,392.70915003340053,,,,,,,,,,,1,1,2024-10-14_17h29.23.380,audio,2024.1.5,122.30707790928385,
6_con_rate,0.02,6,21,7,259,11,,,,393.5124932399515,393.54175211641416,393.642170017233,393.6662721163972,393.76669001721604,393.789365491402,393.88978339222086,393.9129823664058,394.01340026722465,394.04203620041665,394.1424541012355,394.16621278340756,,,,,1,1,2024-10-14_17h29.23.380,audio,2024.1.5,122.30707790928385,
4_con_duration,0.08,4,21,8,260,3,,,,394.9695559899585,395.05903228341197,395.1594501842308,395.2424370333989,395.34285493421777,395.42586161639485,395.5262795172137,395.6091990754154,,,,,,,,,1,1,2024-10-14_17h29.23.380,audio,2024.1.5,122.30707790928385,
1_con_duration,0.62,1,21,9,261,0,,,,396.41254228196635,397.03440078340066,,,,,,,,,,,,,,,1,1,2024-10-14_17h29.23.380,audio,2024.1.5,122.30707790928385,
5_con_rate,0.02,5,21,10,262,10,,,,397.8377439899516,397.85868532540337,397.9591032262222,397.98318036640705,398.0835982672259,398.10576178341,398.20617968422886,398.22885907541206,398.3292769762309,398.3592583254009,,,,,,,1,1,2024-10-14_17h29.23.380,audio,2024.1.5,122.30707790928385,
3_con_rate,0.02,3,21,11,263,8,,,,399.16260153195185,399.1925289504085,399.2929468512273,399.3159872003977,399.4164051012165,399.43842536639715,,,,,,,4.wav,400.2368547920196,13.mp4,400.2368547920196,1,1,2024-10-14_17h29.23.380,audio,2024.1.5,122.30707790928385,
2_con_duration,0.26,2,22,0,264,1,,,,402.07946562356085,402.34297220040173,402.4433901012206,402.70959799140985,,,,,,,,,,,,,1,1,2024-10-14_17h29.23.380,audio,2024.1.5,122.30707790928385,
2_con_rate,0.02,2,22,1,265,7,,,,403.5129411979608,403.5422363664053,403.64265426722415,403.6624014084024,,,,,,,,,,,,,1,1,2024-10-14_17h29.23.380,audio,2024.1.5,122.30707790928385,
3_con_rate,0.02,3,22,2,266,8,,,,404.46574461495334,404.4932912004093,404.59370910122817,404.62617540840586,404.7265933092247,404.75864211639566,,,,,,,,,,,1,1,2024-10-14_17h29.23.380,audio,2024.1.5,122.30707790928385,
6_con_rate,0.02,6,22,3,267,11,,,,405.5619853229466,405.5921612414037,405.69257914222254,405.7160877414077,405.81650564222656,405.8428928664158,405.94331076723466,405.97540990840355,406.0758278092224,406.09989215841927,406.2003100592381,406.22123090839307,,,,,1,1,2024-10-14_17h29.23.380,audio,2024.1.5,122.30707790928385,
1_con_duration,0.62,1,22,4,268,0,,,,407.024574114944,407.6507714504056,,,,,,,,,,,,,,,1,1,2024-10-14_17h29.23.380,audio,2024.1.5,122.30707790928385,
6_con_duration,0.02,6,22,5,269,5,,,,408.45411465695656,408.47538620039415,408.575804101213,408.59989774140706,408.7003156422259,408.72382149141924,408.8242393922381,408.84718524141647,408.9476031422353,408.97020790840327,409.0706258092221,409.0940035753971,,,,,1,1,2024-10-14_17h29.23.380,audio,2024.1.5,122.30707790928385,
5_con_duration,0.044,5,22,6,270,4,,,,409.89734678194804,409.94265128341215,410.043069184231,410.09302111640284,410.1934390172217,410.24280011640224,410.3432180172211,410.3927391583944,410.4931570592133,410.54268703339915,,,,,,,1,1,2024-10-14_17h29.23.380,audio,2024.1.5,122.30707790928385,
4_con_duration,0.08,4,22,7,271,3,,,,411.3460302399501,411.4261071583984,411.52652505921725,411.60955207539666,411.7099699762155,411.79287111640735,411.8932890172262,411.97622224139343,,,,,,,,,1,1,2024-10-14_17h29.23.380,audio,2024.1.5,122.30707790928385,
5_con_rate,0.02,5,22,8,272,10,,,,412.7795654479444,412.808831241398,412.9092491422169,412.93199015840366,413.0324080592225,413.05492436639327,413.1553422672121,413.17906186640323,413.2794797672221,413.30899328340604,,,,,,,1,1,2024-10-14_17h29.23.380,audio,2024.1.5,122.30707790928385,
1_con_rate,0.02,1,22,9,273,6,,,,414.112336489957,414.1428275753948,,,,,,,,,,,,,,,1,1,2024-10-14_17h29.23.380,audio,2024.1.5,122.30707790928385,
3_con_duration,0.14,3,22,10,274,2,,,,414.94617078194574,415.09311036641304,415.1935282672319,415.3431463663961,415.443564267215,415.5931960754184,,,,,,,,,,,1,1,2024-10-14_17h29.23.380,audio,2024.1.5,122.30707790928385,
4_con_rate,0.02,4,22,11,275,9,,,,416.39653928196935,416.425700825415,416.52611872623385,416.5492979084171,416.64971580923594,416.6735862004076,416.77400410122647,416.7961317004025,,,,,5.wav,417.59493154200027,12.mp4,417.59493154200027,1,1,2024-10-14_17h29.23.380,audio,2024.1.5,122.30707790928385,
5_con_duration,0.044,5,23,0,276,4,,,,419.4175605815486,419.46467832540804,419.5650962262269,419.60946961641605,419.7098875172349,419.7599505334016,419.86036843422045,419.9099270754174,420.01034497623624,420.059643241411,,,,,,,1,1,2024-10-14_17h29.23.380,audio,2024.1.5,122.30707790928385,
2_con_duration,0.26,2,23,1,277,1,,,,421.0387177743949,421.29868599141776,421.3991038922366,421.66000028339624,,,,,,,,,,,,,1,1,2024-10-14_17h29.23.380,audio,2024.1.5,122.30707790928385,
5_con_rate,0.02,5,23,2,278,10,,,,422.4633434899472,422.49255736641646,422.5929752672353,422.6120027834055,422.71242068422436,422.7430369914015,422.84345489222034,422.8667354084115,422.96715330923035,422.98932457541525,,,,,,,1,1,2024-10-14_17h29.23.380,audio,2024.1.5,122.30707790928385,
3_con_rate,0.02,3,23,3,279,8,,,,423.7926677819662,423.81388415839467,423.9143020592135,423.94257265839553,424.0429905592144,424.0664896164177,,,,,,,,,,,1,1,2024-10-14_17h29.23.380,audio,2024.1.5,122.30707790928385,
6_con_duration,0.02,6,23,4,280,5,,,,424.86983282296865,424.89345549141,424.99387339222886,425.0169269504055,425.11734485122435,425.14037286639507,425.2407907672139,425.26496182540143,425.3653797262203,425.3931502834108,425.4935681842297,425.52584382540374,,,,,1,1,2024-10-14_17h29.23.380,audio,2024.1.5,122.30707790928385,
1_con_duration,0.62,1,23,5,281,0,,,,426.3291870319547,426.95087928340365,,,,,,,,,,,,,,,1,1,2024-10-14_17h29.23.380,audio,2024.1.5,122.30707790928385,
2_con_rate,0.02,2,23,6,282,7,,,,427.7542224899546,427.7755801164109,427.87599801722973,427.8999513663963,,,,,,,,,,,,,1,1,2024-10-14_17h29.23.380,audio,2024.1.5,122.30707790928385,
6_con_rate,0.02,6,23,7,283,11,,,,428.70329457294724,428.7264209504152,428.8268388512341,428.86003049140857,428.9604483922274,428.9935514504119,429.0939693512308,429.12664507539887,429.2270629762177,429.25574740841114,429.35616530923,429.37623920039334,,,,,1,1,2024-10-14_17h29.23.380,audio,2024.1.5,122.30707790928385,
3_con_duration,0.14,3,23,8,284,2,,,,430.1795824069443,430.32684345040764,430.4272613512265,430.57665224141385,430.6770701422327,430.8266885754216,,,,,,,,,,,1,1,2024-10-14_17h29.23.380,audio,2024.1.5,122.30707790928385,
4_con_rate,0.02,4,23,9,285,9,,,,431.63003178197255,431.6594207414106,431.75983864222945,431.78373353341306,431.8841514342319,431.90998653340796,432.0104044342268,432.04255424141013,,,,,,,,,1,1,2024-10-14_17h29.23.380,audio,2024.1.5,122.30707790928385,
1_con_rate,0.02,1,23,10,286,6,,,,432.8458974479611,432.875860158421,,,,,,,,,,,,,,,1,1,2024-10-14_17h29.23.380,audio,2024.1.5,122.30707790928385,
4_con_duration,0.08,4,23,11,287,3,,,,433.67920336497195,433.76000482540405,433.8604227262229,433.94334845042033,434.0437663512392,434.12664482539697,434.2270627262158,434.3100151584164,,,,,5.wav,435.10875308301183,12.mp4,435.10875308301183,1,1,2024-10-14_17h29.23.380,audio,2024.1.5,122.30707790928385,
4_con_rate,0.02,4,24,0,288,9,,,,436.9404277065711,436.9632082833938,437.06362618421264,437.09346128340405,437.1938791842229,437.2148044914153,437.31522239223415,437.33903020042055,,,,,,,,,1,1,2024-10-14_17h29.23.380,audio,2024.1.5,122.30707790928385,
3_con_duration,0.14,3,24,1,289,2,,,,438.1423734069715,438.2838054504042,438.38422335122306,438.52639849141417,438.626816392233,438.77693949140087,,,,,,,,,,,1,1,2024-10-14_17h29.23.380,audio,2024.1.5,122.30707790928385,
5_con_rate,0.02,5,24,2,290,10,,,,439.5802826979518,439.6094445333962,439.70986243421504,439.73347786640227,439.8338957672211,439.8567610333936,439.95717893421244,439.98114690840305,440.0815648092219,440.10996999141355,,,,,,,1,1,2024-10-14_17h29.23.380,audio,2024.1.5,122.30707790928385,
5_con_duration,0.044,5,24,3,291,4,,,,440.9133131979645,440.9601540754171,441.06057197623596,441.11003503341055,441.2104529342294,441.2595887004078,441.36000660122664,441.4100748664147,441.51049276723353,441.5599590753933,,,,,,,1,1,2024-10-14_17h29.23.380,audio,2024.1.5,122.30707790928385,
3_con_rate,0.02,3,24,4,292,8,,,,442.36330228194424,442.39274765840094,442.4931655592198,442.51705215840195,442.6174700592208,442.64028015841325,,,,,,,,,,,1,1,2024-10-14_17h29.23.380,audio,2024.1.5,122.30707790928385,
2_con_duration,0.26,2,24,5,293,1,,,,443.4436233649642,443.7105026164005,443.81092051721936,444.0771754084068,,,,,,,,,,,,,1,1,2024-10-14_17h29.23.380,audio,2024.1.5,122.30707790928385,
6_con_rate,0.02,6,24,6,294,11,,,,444.88051861495774,444.91001703340737,445.0104349342262,445.03394295040346,445.1343608512223,445.1569451584161,445.25736305923493,445.2801496163971,445.380567517216,445.4096854914184,445.5101033922372,445.53320849140584,,,,,1,1,2024-10-14_17h29.23.380,audio,2024.1.5,122.30707790928385,
2_con_rate,0.02,2,24,7,295,7,,,,446.3365516979568,446.3570679503988,446.45748585121765,446.48026295042075,,,,,,,,,,,,,1,1,2024-10-14_17h29.23.380,audio,2024.1.5,122.30707790928385,
4_con_duration,0.08,4,24,8,296,3,,,,447.2836061569717,447.36552557542166,447.4659434762405,447.54888353340505,447.6493014342239,447.7322510333994,447.83266893421825,447.91582720040753,,,,,,,,,1,1,2024-10-14_17h29.23.380,audio,2024.1.5,122.30707790928385,
1_con_duration,0.62,1,24,9,297,0,,,,448.7191704069585,449.34410578339305,,,,,,,,,,,,,,,1,1,2024-10-14_17h29.23.380,audio,2024.1.5,122.30707790928385,
6_con_duration,0.02,6,24,10,298,5,,,,450.147448989944,450.1762179083977,450.27663580921654,450.3008508664003,450.40126876721916,450.42694382542106,450.5273617262399,450.5506350334123,450.65105293423113,450.6734817003977,450.77389960121656,450.7975684914069,,,,,1,1,2024-10-14_17h29.23.380,audio,2024.1.5,122.30707790928385,
1_con_rate,0.02,1,24,11,299,6,,,,451.6009116979578,451.62127228341126,,,,,,,,,,,1.wav,452.41995654199854,16.mp4,452.41995654199854,1,1,2024-10-14_17h29.23.380,audio,2024.1.5,122.30707790928385,
3_con_duration,0.14,3,25,0,300,2,,,,454.2421579985472,454.3820297833969,454.48244768421574,454.6274009913992,454.72781889221807,454.87728857540935,,,,,,,,,,,1,1,2024-10-14_17h29.23.380,audio,2024.1.5,122.30707790928385,
6_con_duration,0.02,6,25,1,301,5,,,,455.6806317819603,455.7097514914145,455.8101693922334,455.83383353340616,455.934251434225,455.9608089503978,456.06122685121665,456.0932790334133,456.19369693423215,456.21663299139766,456.3170508922165,456.33974532539435,,,,,1,1,2024-10-14_17h29.23.380,audio,2024.1.5,122.30707790928385,
2_con_duration,0.26,2,25,2,302,1,,,,457.1430885319453,457.410836700417,457.51125460123586,457.7775160754187,,,,,,,,,,,,,1,1,2024-10-14_17h29.23.380,audio,2024.1.5,122.30707790928385,
4_con_rate,0.02,4,25,3,303,9,,,,458.58085928196965,458.61033657540395,458.7107544762228,458.7439032834169,458.84432118423575,458.8670536584192,458.96747155923805,458.9939517004037,,,,,,,,,1,1,2024-10-14_17h29.23.380,audio,2024.1.5,122.30707790928385,
3_con_rate,0.02,3,25,4,304,8,,,,459.7972949069547,459.82640799141666,459.9268258922355,459.950471741418,460.0508896422369,460.0734852413967,,,,,,,,,,,1,1,2024-10-14_17h29.23.380,audio,2024.1.5,122.30707790928385,
2_con_rate,0.02,2,25,5,305,7,,,,460.8768284479477,460.89788640841437,460.9983043092332,461.0265337833931,,,,,,,,,,,,,1,1,2024-10-14_17h29.23.380,audio,2024.1.5,122.30707790928385,
4_con_duration,0.08,4,25,6,306,3,,,,461.82987698994407,461.91043532541664,462.0108532262355,462.0939484504139,462.19436635123276,462.2772694504034,462.3776873512223,462.4605717003957,,,,,,,,,1,1,2024-10-14_17h29.23.380,audio,2024.1.5,122.30707790928385,
5_con_duration,0.044,5,25,7,307,4,,,,463.26391490694664,463.31046345042125,463.4108813512401,463.4606955334108,463.56111343422964,463.6105385753996,463.7109564762184,463.76066432541995,463.8610822262388,463.9108857834159,,,,,,,1,1,2024-10-14_17h29.23.380,audio,2024.1.5,122.30707790928385,
1_con_rate,0.02,1,25,8,308,6,,,,464.71422898996684,464.7431545334199,,,,,,,,,,,,,,,1,1,2024-10-14_17h29.23.380,audio,2024.1.5,122.30707790928385,
1_con_duration,0.62,1,25,9,309,0,,,,465.54649773997085,466.16866215840275,,,,,,,,,,,,,,,1,1,2024-10-14_17h29.23.380,audio,2024.1.5,122.30707790928385,
5_con_rate,0.02,5,25,10,310,10,,,,466.9720053649537,466.99338707541176,467.0938049762306,467.1174819504173,467.21789985123615,467.2405597833946,467.34097768421344,467.3638569504052,467.46427485122405,467.49423253342104,,,,,,,1,1,2024-10-14_17h29.23.380,audio,2024.1.5,122.30707790928385,
6_con_rate,0.02,6,25,11,311,11,,,,468.297575739972,468.32675428340156,468.4271721842204,468.45058782542185,468.5510057262407,468.57298732541096,468.6734052262298,468.6967141584115,468.79713205923036,468.8277283253934,468.9281462262123,468.96067315841503,1.wav,469.7597523330187,16.mp4,469.7597523330187,1,1,2024-10-14_17h29.23.380,audio,2024.1.5,122.30707790928385,
2_con_rate,0.02,2,26,0,312,7,,,,471.5953227895603,471.62675724141593,471.7271751422348,471.7509324913932,,,,,,,,,,,,,1,1,2024-10-14_17h29.23.380,audio,2024.1.5,122.30707790928385,
3_con_duration,0.14,3,26,1,313,2,,,,472.55427569794415,472.694311200417,472.7947291012359,472.9445148664032,473.04493276722206,473.1944641163951,,,,,,,,,,,1,1,2024-10-14_17h29.23.380,audio,2024.1.5,122.30707790928385,
4_con_rate,0.02,4,26,2,314,9,,,,473.9978073229461,474.0267770334118,474.12719493423066,474.1499660334172,474.250383934236,474.2727697003953,474.37318760121417,474.3965334084147,,,,,,,,,1,1,2024-10-14_17h29.23.380,audio,2024.1.5,122.30707790928385,
6_con_duration,0.02,6,26,3,315,5,,,,475.19987661496566,475.22682053340543,475.3272384342243,475.3508939504187,475.45131185123756,475.4770453253965,475.57746322621534,475.60119811641346,475.7016160172323,475.72439978339537,475.8248176842142,475.84809082540744,,,,,1,1,2024-10-14_17h29.23.380,audio,2024.1.5,122.30707790928385,
2_con_duration,0.26,2,26,4,316,1,,,,476.6514340319584,476.911299658395,477.0117175592139,477.27783449140554,,,,,,,,,,,,,1,1,2024-10-14_17h29.23.380,audio,2024.1.5,122.30707790928385,
1_con_rate,0.02,1,26,5,317,6,,,,478.0811776979565,478.1102578254155,,,,,,,,,,,,,,,1,1,2024-10-14_17h29.23.380,audio,2024.1.5,122.30707790928385,
1_con_duration,0.62,1,26,6,318,0,,,,478.91360103196644,479.53574861639356,,,,,,,,,,,,,,,1,1,2024-10-14_17h29.23.380,audio,2024.1.5,122.30707790928385,
5_con_rate,0.02,5,26,7,319,10,,,,480.3390918229445,480.3603316583991,480.46074955921796,480.4841427003936,480.58456060121244,480.608572991399,480.70899089221786,480.7313511584158,480.83176905923466,480.86102270041886,,,,,,,1,1,2024-10-14_17h29.23.380,audio,2024.1.5,122.30707790928385,
4_con_duration,0.08,4,26,8,320,3,,,,481.6643659069698,481.744344241402,481.8447621422209,481.92761324140304,482.0280311422219,482.11105824140543,482.2114761422243,482.2943239914108,,,,,,,,,1,1,2024-10-14_17h29.23.380,audio,2024.1.5,122.30707790928385,
3_con_rate,0.02,3,26,9,321,8,,,,483.09766719796175,483.1270969504054,483.22751485122427,483.2502632834163,483.35068118423516,483.37331874139784,,,,,,,,,,,1,1,2024-10-14_17h29.23.380,audio,2024.1.5,122.30707790928385,
5_con_duration,0.044,5,26,10,322,4,,,,484.1766619479488,484.22772386641884,484.3281417672377,484.37771420041975,484.4781321012386,484.52761053341385,484.6280284342327,484.67768674140973,484.7781046422286,484.82766215841696,,,,,,,1,1,2024-10-14_17h29.23.380,audio,2024.1.5,122.30707790928385,
6_con_rate,0.02,6,26,11,323,11,,,,485.6310053649679,485.6603754503973,485.76079335121614,485.78025940841474,485.8806773092336,485.91055357541484,486.0109714762337,486.04421165839597,486.1446295592148,486.16811582540106,486.2685337262199,486.290204116414,1.wav,487.08885770800407,16.mp4,487.08885770800407,1,1,2024-10-14_17h29.23.380,audio,2024.1.5,122.30707790928385,
1_con_rate,0.02,1,27,0,324,6,,,,488.9150979985658,488.94428786642095,,,,,,,,,,,,,,,1,1,2024-10-14_17h29.23.380,audio,2024.1.5,122.30707790928385,
3_con_duration,0.14,3,27,1,325,2,,,,489.7476310729719,489.894666325397,489.99508422621585,490.1446231163951,490.24504101721396,490.39471940839724,,,,,,,,,,,1,1,2024-10-14_17h29.23.380,audio,2024.1.5,122.30707790928385,
4_con_duration,0.08,4,27,2,326,3,,,,491.1980626149482,491.2778986583959,491.37831655921474,491.4613303254097,491.56174822622853,491.64467349140034,491.7450913922192,491.8279604504147,,,,,,,,,1,1,2024-10-14_17h29.23.380,audio,2024.1.5,122.30707790928385,
6_con_rate,0.02,6,27,3,327,11,,,,492.63130365696566,492.66044940841095,492.7608673092298,492.78272211639853,492.8831400172174,492.90583190840846,493.0062498092273,493.0278925754043,493.12831047622313,493.15123878341694,493.2516566842358,493.2740420333954,,,,,1,1,2024-10-14_17h29.23.380,audio,2024.1.5,122.30707790928385,
5_con_rate,0.02,5,27,4,328,10,,,,494.07738523994635,494.09818428339497,494.1986021842138,494.2279677414132,494.32838564223204,494.3614689504117,494.46188685123053,494.4809601164103,494.58137801722916,494.61117390840957,,,,,,,1,1,2024-10-14_17h29.23.380,audio,2024.1.5,122.30707790928385,
1_con_duration,0.62,1,27,5,329,0,,,,495.4145171149605,496.03395236639483,,,,,,,,,,,,,,,1,1,2024-10-14_17h29.23.380,audio,2024.1.5,122.30707790928385,
2_con_rate,0.02,2,27,6,330,7,,,,496.8372955729458,496.8586672414182,496.95908514223703,496.9817728254217,,,,,,,,,,,,,1,1,2024-10-14_17h29.23.380,audio,2024.1.5,122.30707790928385,
2_con_duration,0.26,2,27,7,331,1,,,,497.7851160319726,498.04493161641005,498.1453495172289,498.41174545040997,,,,,,,,,,,,,1,1,2024-10-14_17h29.23.380,audio,2024.1.5,122.30707790928385,
3_con_rate,0.02,3,27,8,332,8,,,,499.2150886569609,499.244152325418,499.34457022623684,499.3638777834218,499.46429568424065,499.4876207413996,,,,,,,,,,,1,1,2024-10-14_17h29.23.380,audio,2024.1.5,122.30707790928385,
4_con_rate,0.02,4,27,9,333,9,,,,500.29096394795056,500.313973033402,500.4143909342209,500.44437420040197,500.63684184363814,500.6613481584151,500.76176605923393,500.7949307414034,,,,,,,,,1,1,2024-10-14_17h29.23.380,audio,2024.1.5,122.30707790928385,
6_con_duration,0.02,6,27,10,334,5,,,,501.59827394795434,501.6274582833954,501.72787618421427,501.7474888663943,501.84790676721315,501.8780350334215,501.97845293424035,502.0018418254127,502.1022597262316,502.1256635334081,502.22608143422696,502.2459394084086,,,,,1,1,2024-10-14_17h29.23.380,audio,2024.1.5,122.30707790928385,
5_con_duration,0.044,5,27,11,335,4,,,,503.04928261495957,503.09444365840466,503.1948615592235,503.24478945040903,503.3452073512279,503.39482732540057,503.4952452262194,503.5447747004015,503.64519260122034,503.69485157539896,,,1.wav,504.4931961669936,15.mp4,504.4931961669936,1,1,2024-10-14_17h29.23.380,audio,2024.1.5,122.30707790928385,
2_con_rate,0.02,2,28,0,336,7,,,,506.3448430815712,506.3674267834082,506.46784468422703,506.4903772414051,,,,,,,,,,,,,1,1,2024-10-14_17h29.23.380,audio,2024.1.5,122.30707790928385,
1_con_duration,0.62,1,28,1,337,0,,,,507.29372044795605,507.9192417834216,,,,,,,,,,,,,,,1,1,2024-10-14_17h29.23.380,audio,2024.1.5,122.30707790928385,
5_con_duration,0.044,5,28,2,338,4,,,,508.7225849899726,508.76687270039986,508.8672906012187,508.91101678339476,509.0114346842136,509.0616522004217,509.16207010124054,509.21189057539743,509.3123084762163,509.3616598254099,,,,,,,1,1,2024-10-14_17h29.23.380,audio,2024.1.5,122.30707790928385,
4_con_duration,0.08,4,28,3,339,3,,,,510.16500303196085,510.2449389084155,510.3453568092344,510.4283696583967,510.5287875592156,510.61162174141793,510.7120396422368,510.79505449141436,,,,,,,,,1,1,2024-10-14_17h29.23.380,audio,2024.1.5,122.30707790928385,
6_con_rate,0.02,6,28,4,340,11,,,,511.5983976979653,511.62757057540296,511.7279884762218,511.75160928342086,511.8520271842397,511.87519853341803,511.9756164342369,511.99820511640576,512.0986230172247,512.1278539084102,512.2282718092291,512.2523854913976,,,,,1,1,2024-10-14_17h29.23.380,audio,2024.1.5,122.30707790928385,
4_con_rate,0.02,4,28,5,341,9,,,,513.0557286979486,513.0782686584076,513.1786865592265,513.2013429914165,513.3017608922354,513.3236647413956,513.4240826422146,513.4466591584002,,,,,,,,,1,1,2024-10-14_17h29.23.380,audio,2024.1.5,122.30707790928385,
2_con_duration,0.26,2,28,6,342,1,,,,514.2500023649511,514.5120765334083,514.6124944342272,514.8787860334065,,,,,,,,,,,,,1,1,2024-10-14_17h29.23.380,audio,2024.1.5,122.30707790928385,
1_con_rate,0.02,1,28,7,343,6,,,,515.6821292399575,515.7109713254118,,,,,,,,,,,,,,,1,1,2024-10-14_17h29.23.380,audio,2024.1.5,122.30707790928385,
3_con_duration,0.14,3,28,8,344,2,,,,516.5143145319628,516.6619919914025,516.7624098922214,516.9119427003985,517.0123606012174,517.1620542004035,,,,,,,,,,,1,1,2024-10-14_17h29.23.380,audio,2024.1.5,122.30707790928385,
6_con_duration,0.02,6,28,9,345,5,,,,517.9653974069545,517.9945398254,518.0949577262189,518.1191052834125,518.2195231842314,518.244152408393,518.3445703092119,518.3638094083959,518.4642273092148,518.4946615333989,518.5950794342178,518.618779075399,,,,,1,1,2024-10-14_17h29.23.380,audio,2024.1.5,122.30707790928385,
5_con_rate,0.02,5,28,10,346,10,,,,519.4221222819499,519.4432137414202,519.5436316422391,519.5670955334004,519.6675134342194,519.6907529913966,519.7911708922155,519.8148074504076,519.9152253512265,519.9453208254214,,,,,,,1,1,2024-10-14_17h29.23.380,audio,2024.1.5,122.30707790928385,
3_con_rate,0.02,3,28,11,347,8,,,,520.7486640319723,520.7779744504165,520.8783923512354,520.9016408254189,521.0020587262378,521.0254711584217,,,,,,,4.wav,521.8242020420148,13.mp4,521.8242020420148,1,1,2024-10-14_17h29.23.380,audio,2024.1.5,122.30707790928385,
4_con_rate,0.02,4,29,0,348,9,,,,523.6629572065664,523.6826528664184,523.7830707672373,523.8119093254005,523.9123272262194,523.9451761164033,524.0455940172222,524.0688092004071,,,,,,,,,1,1,2024-10-14_17h29.23.380,audio,2024.1.5,122.30707790928385,
5_con_rate,0.02,5,29,1,349,10,,,,524.8721524069581,524.8929626584082,524.9933805592271,525.0166317414056,525.1170496422245,525.1394194084074,525.2398373092263,525.2589596583945,525.3593775592134,525.3825598664204,,,,,,,1,1,2024-10-14_17h29.23.380,audio,2024.1.5,122.30707790928385,
3_con_duration,0.14,3,29,2,350,2,,,,526.1859030729713,526.328778825418,526.4291967262369,526.5789645334095,526.6793824342284,526.8288320334192,,,,,,,,,,,1,1,2024-10-14_17h29.23.380,audio,2024.1.5,122.30707790928385,
6_con_duration,0.02,6,29,3,351,5,,,,527.6321752399701,527.661406075416,527.761823976235,527.7858324084169,527.8862503092358,527.9086753664102,528.0090932672291,528.0316673663998,528.1320852672187,528.1615391584143,528.2619570592332,528.2852838253981,,,,,1,1,2024-10-14_17h29.23.380,audio,2024.1.5,122.30707790928385,
1_con_rate,0.02,1,29,4,352,6,,,,529.088627031949,529.1121169503982,,,,,,,,,,,,,,,1,1,2024-10-14_17h29.23.380,audio,2024.1.5,122.30707790928385,
2_con_duration,0.26,2,29,5,353,1,,,,529.9154601569492,530.1791554504103,530.2795733512293,530.5454628664098,,,,,,,,,,,,,1,1,2024-10-14_17h29.23.380,audio,2024.1.5,122.30707790928385,
5_con_duration,0.044,5,29,6,354,4,,,,531.3488060729608,531.3954914503935,531.4959093512124,531.5454580753955,531.6458759762144,531.6954696163972,531.7958875172161,531.8448044084158,531.9452223092347,531.9953560334194,,,,,,,1,1,2024-10-14_17h29.23.380,audio,2024.1.5,122.30707790928385,
3_con_rate,0.02,3,29,7,355,8,,,,532.7986992399703,532.8281087004085,532.9285266012274,532.9483204913937,533.0487383922126,533.0682137004129,,,,,,,,,,,1,1,2024-10-14_17h29.23.380,audio,2024.1.5,122.30707790928385,
6_con_rate,0.02,6,29,8,356,11,,,,533.8715569069639,533.8928860754037,533.9933039762226,534.0159466583951,534.116364559214,534.1449264503987,534.2453443512176,534.2689045334206,534.3693224342395,534.3918412004219,534.4922591012408,534.5160311164015,,,,,1,1,2024-10-14_17h29.23.380,audio,2024.1.5,122.30707790928385,
4_con_duration,0.08,4,29,9,357,3,,,,535.3193743229524,535.4007452414168,535.5011631422357,535.583811950413,535.6842298512319,535.7675669084216,535.8679848092405,535.9504429503955,,,,,,,,,1,1,2024-10-14_17h29.23.380,audio,2024.1.5,122.30707790928385,
1_con_duration,0.62,1,29,10,358,0,,,,536.7537861569465,537.3791464084148,,,,,,,,,,,,,,,1,1,2024-10-14_17h29.23.380,audio,2024.1.5,122.30707790928385,
2_con_rate,0.02,2,29,11,359,7,,,,538.1824896149658,538.2114185334154,538.3118364342344,538.3356615754107,,,,,,,,,5.wav,539.1339729579922,5.mp4,539.1339729579922,1,1,2024-10-14_17h29.23.380,audio,2024.1.5,122.30707790928385,
4_con_rate,0.02,4,30,0,360,9,,,,540.95244695656,540.9755144084135,541.0759323092324,541.0954069914093,541.1958248922282,541.218349783399,541.318767684218,541.3414337004157,,,,,,,,,1,1,2024-10-14_17h29.23.380,audio,2024.1.5,122.30707790928385,
5_con_duration,0.044,5,30,1,361,4,,,,542.1447769069666,542.1959569914121,542.296374892231,542.3449915754114,542.4454094762303,542.4951009503944,542.5955188512133,542.6450823663996,542.7455002672185,542.7951113254036,,,,,,,1,1,2024-10-14_17h29.23.380,audio,2024.1.5,122.30707790928385,
3_con_duration,0.14,3,30,2,362,2,,,,543.5984545319545,543.7460102004203,543.8464281012392,543.9960524504219,544.0964703512408,544.2359239914018,,,,,,,,,,,1,1,2024-10-14_17h29.23.380,audio,2024.1.5,122.30707790928385,
1_con_rate,0.02,1,30,3,363,6,,,,545.0392671979528,545.0610004504066,,,,,,,,,,,,,,,1,1,2024-10-14_17h29.23.380,audio,2024.1.5,122.30707790928385,
2_con_duration,0.26,2,30,4,364,1,,,,545.8643436569575,546.1294883664028,546.2299062672217,546.4959819914162,,,,,,,,,,,,,1,1,2024-10-14_17h29.23.380,audio,2024.1.5,122.30707790928385,
5_con_rate,0.02,5,30,5,365,10,,,,547.2993251979672,547.3288292833982,547.4292471842172,547.4531740334147,547.5535919342336,547.5753222414147,547.6757401422336,547.6987035333965,547.7991214342154,547.8182725753956,,,,,,,1,1,2024-10-14_17h29.23.380,audio,2024.1.5,122.30707790928385,
3_con_rate,0.02,3,30,6,366,8,,,,548.6216157819465,548.6453319504013,548.7457498512202,548.7689534084144,548.8693713092333,548.8926737004164,,,,,,,,,,,1,1,2024-10-14_17h29.23.380,audio,2024.1.5,122.30707790928385,
2_con_rate,0.02,2,30,7,367,7,,,,549.6960169069673,549.7170484914183,549.8174663922372,549.8406229914195,,,,,,,,,,,,,1,1,2024-10-14_17h29.23.380,audio,2024.1.5,122.30707790928385,
6_con_rate,0.02,6,30,8,368,11,,,,550.6439661979705,550.6630204914051,550.763438392224,550.7957147834037,550.8961326842226,550.9291784914182,551.0295963922371,551.0533125333983,551.1537304342172,551.1762001164112,551.2766180172301,551.3000903664012,,,,,1,1,2024-10-14_17h29.23.380,audio,2024.1.5,122.30707790928385,
4_con_duration,0.08,4,30,9,369,3,,,,552.1034335729521,552.1847823663935,552.2852002672124,552.3678510334081,552.468268934227,552.5514322414034,552.6518501422223,552.7349021584174,,,,,,,,,1,1,2024-10-14_17h29.23.380,audio,2024.1.5,122.30707790928385,
1_con_duration,0.62,1,30,10,370,0,,,,553.5382453649684,554.1629734084214,,,,,,,,,,,,,,,1,1,2024-10-14_17h29.23.380,audio,2024.1.5,122.30707790928385,
6_con_duration,0.02,6,30,11,371,5,,,,554.9663166149724,554.9951854914049,555.0956033922238,555.1189021584083,555.2193200592272,555.2417617834086,555.3421796842275,555.3651977414062,555.4656156422251,555.4953156164062,555.5957335172251,555.6187148664118,1.wav,556.4174444579985,16.mp4,556.4174444579985,1,1,2024-10-14_17h29.23.380,audio,2024.1.5,122.30707790928385,
2_con_duration,0.26,2,31,0,372,1,,,,558.2472644145543,558.5132487414027,558.6136666422216,558.8796632004174,,,,,,,,,,,,,1,1,2024-10-14_17h29.23.380,audio,2024.1.5,122.30707790928385,
4_con_duration,0.08,4,31,1,373,3,,,,559.6830064069684,559.7621578254126,559.8625757262315,559.9461832834146,560.0466011842335,560.1293779084023,560.2297958092212,560.3127372004179,,,,,,,,,1,1,2024-10-14_17h29.23.380,audio,2024.1.5,122.30707790928385,
5_con_rate,0.02,5,31,2,374,10,,,,561.1160804069689,561.145372033419,561.2457899342379,561.2687199504086,561.3691378512275,561.3921358664026,561.4925537672215,561.516119616406,561.6165375172249,561.6456148664089,,,,,,,1,1,2024-10-14_17h29.23.380,audio,2024.1.5,122.30707790928385,
2_con_rate,0.02,2,31,3,375,7,,,,562.4489580729598,562.4787904504134,562.5792083512323,562.6036689083936,,,,,,,,,,,,,1,1,2024-10-14_17h29.23.380,audio,2024.1.5,122.30707790928385,
1_con_rate,0.02,1,31,4,376,6,,,,563.4070121149446,563.4286417414056,,,,,,,,,,,,,,,1,1,2024-10-14_17h29.23.380,audio,2024.1.5,122.30707790928385,
6_con_rate,0.02,6,31,5,377,11,,,,564.2319849479566,564.253363491394,564.3537813922129,564.3762052414037,564.4766231422226,564.499631200402,564.6000491012209,564.6297265754052,564.7301444762242,564.7628199504194,564.8632378512383,564.8955887834105,,,,,1,1,2024-10-14_17h29.23.380,audio,2024.1.5,122.30707790928385,
6_con_duration,0.02,6,31,6,378,5,,,,565.6989319899615,565.7288185753947,565.8292364762136,565.8530406164151,565.953458517234,565.9758757414035,566.0762936422224,566.0993885753938,566.1998064762128,566.2294732004026,566.3298911012215,566.3628059504059,,,,,1,1,2024-10-14_17h29.23.380,audio,2024.1.5,122.30707790928385,
5_con_duration,0.044,5,31,7,379,4,,,,567.1661491569569,567.2127898254054,567.3132077262243,567.3629389504,567.4633568512189,567.512913158405,567.6133310592239,567.6628618254123,567.7632797262312,567.8128960754053,,,,,,,1,1,2024-10-14_17h29.23.380,audio,2024.1.5,122.30707790928385,
3_con_rate,0.02,3,31,8,380,8,,,,568.6162392819563,568.6456759504014,568.7460938512203,568.7795674914174,568.8799853922363,568.9130537004181,,,,,,,,,,,1,1,2024-10-14_17h29.23.380,audio,2024.1.5,122.30707790928385,
1_con_duration,0.62,1,31,9,381,0,,,,569.7163969069691,570.3373364504165,,,,,,,,,,,,,,,1,1,2024-10-14_17h29.23.380,audio,2024.1.5,122.30707790928385,
4_con_rate,0.02,4,31,10,382,9,,,,571.1406796569674,571.1630154084211,571.26343330924,571.2963483253931,571.396766226212,571.4297614914045,571.5301793922234,571.5629143253988,,,,,,,,,1,1,2024-10-14_17h29.23.380,audio,2024.1.5,122.30707790928385,
3_con_duration,0.14,3,31,11,383,2,,,,572.3662575319497,572.513335241421,572.61375314224,572.7631379083992,572.8635558092182,573.013082783416,,,,,,,4.wav,573.8117913750175,13.mp4,573.8117913750175,1,1,2024-10-14_17h29.23.380,audio,2024.1.5,122.30707790928385,
3_con_rate,0.02,3,32,0,384,8,,,,575.6374094565632,575.663127366404,575.7635452672229,575.796434116413,575.8968520172319,575.9297705334117,,,,,,,,,,,1,1,2024-10-14_17h29.23.380,audio,2024.1.5,122.30707790928385,
6_con_duration,0.02,6,32,1,385,5,,,,576.7331137399626,576.7623829084129,576.8628008092318,576.8870310334111,576.98744893423,577.0099710334122,577.1103889342311,577.1335179504036,577.2339358512226,577.2626074914093,577.3630253922282,577.384348866393,,,,,1,1,2024-10-14_17h29.23.380,audio,2024.1.5,122.30707790928385,
5_con_duration,0.044,5,32,2,386,4,,,,578.1960602313455,578.2469075334171,578.347325434236,578.3964277004212,578.4968456012401,578.5464632833988,578.6468811842177,578.6960145334102,578.7964324342291,578.8465162004082,,,,,,,1,1,2024-10-14_17h29.23.380,audio,2024.1.5,122.30707790928385,
4_con_rate,0.02,4,32,3,387,9,,,,579.6498594069592,579.6792045754061,579.779622476225,579.799962491417,579.9003803922359,579.9194960334077,580.0199139342266,580.0425960754015,,,,,,,,,1,1,2024-10-14_17h29.23.380,audio,2024.1.5,122.30707790928385,
2_con_rate,0.02,2,32,4,388,7,,,,580.8459392819525,580.8689494913939,580.9693673922128,580.9921428253962,,,,,,,,,,,,,1,1,2024-10-14_17h29.23.380,audio,2024.1.5,122.30707790928385,
1_con_rate,0.02,1,32,5,389,6,,,,581.7954860319471,581.8172247413983,,,,,,,,,,,,,,,1,1,2024-10-14_17h29.23.380,audio,2024.1.5,122.30707790928385,
6_con_rate,0.02,6,32,6,390,11,,,,582.6205679479492,582.6440333664156,582.7444512672345,582.7683447834075,582.8687626842265,582.8963132833975,582.9967311842164,583.02988124142,583.1302991422389,583.1634747003933,583.2638926012122,583.2908587004146,,,,,1,1,2024-10-14_17h29.23.380,audio,2024.1.5,122.30707790928385,
5_con_rate,0.02,5,32,7,391,10,,,,584.0942019069655,584.1171328664146,584.2175507672335,584.2465254084178,584.3469433092367,584.3799816164043,584.4803995172232,584.5131535753986,584.6135714762175,584.6465741584049,,,,,,,1,1,2024-10-14_17h29.23.380,audio,2024.1.5,122.30707790928385,
4_con_duration,0.08,4,32,8,392,3,,,,585.4499173649558,585.5299803254107,585.6303982262297,585.7132472833997,585.8136651842186,585.8966002414032,585.9970181422221,586.0799366163934,,,,,,,,,1,1,2024-10-14_17h29.23.380,audio,2024.1.5,122.30707790928385,
2_con_duration,0.26,2,32,9,393,1,,,,586.8832798229444,587.1469193664176,587.2473372672365,587.5136548254028,,,,,,,,,,,,,1,1,2024-10-14_17h29.23.380,audio,2024.1.5,122.30707790928385,
1_con_duration,0.62,1,32,10,394,0,,,,588.3169980319537,588.9375812003942,,,,,,,,,,,,,,,1,1,2024-10-14_17h29.23.380,audio,2024.1.5,122.30707790928385,
3_con_duration,0.14,3,32,11,395,2,,,,589.7409244069452,589.8802314914152,589.9806493922341,590.1206652004126,590.2210831012316,590.3633524504054,,,,,,,4.wav,591.1622938750079,13.mp4,591.1622938750079,1,1,2024-10-14_17h29.23.380,audio,2024.1.5,122.30707790928385,
3_con_duration,0.14,3,33,0,396,2,,,,592.9954371645523,593.1357705334173,593.2361884342362,593.3802749913972,593.4806928922161,593.6302944914002,,,,,,,,,,,1,1,2024-10-14_17h29.23.380,audio,2024.1.5,122.30707790928385,
5_con_rate,0.02,5,33,1,397,10,,,,594.4336376979511,594.4627815754008,594.5631994762197,594.5868669083953,594.6872848092142,594.7136113254033,594.8140292262223,594.8462242834008,594.9466421842197,594.9795950753993,,,,,,,1,1,2024-10-14_17h29.23.380,audio,2024.1.5,122.30707790928385,
5_con_duration,0.044,5,33,2,398,4,,,,595.7829382819502,595.8300650334073,595.9304829342262,595.9802219084028,596.0806398092217,596.1300880333962,596.2305059342151,596.2800957413943,596.3805136422133,596.4300838254072,,,,,,,1,1,2024-10-14_17h29.23.380,audio,2024.1.5,122.30707790928385,
3_con_rate,0.02,3,33,3,399,8,,,,597.2334270319582,597.2626822413964,597.3631001422153,597.3866905754054,597.4871084762243,597.5095056163933,,,,,,,,,,,1,1,2024-10-14_17h29.23.380,audio,2024.1.5,122.30707790928385,
1_con_duration,0.62,1,33,4,400,0,,,,598.3128488229443,598.9380557003984,,,,,,,,,,,,,,,1,1,2024-10-14_17h29.23.380,audio,2024.1.5,122.30707790928385,
6_con_rate,0.02,6,33,5,401,11,,,,599.7413989069494,599.7626792833995,599.8630971842184,599.8837192833977,599.9841371842166,600.0130451584206,600.1134630592395,600.1365069914115,600.2369248922304,600.2595437004144,600.3599616012333,600.3827982003946,,,,,1,1,2024-10-14_17h29.23.380,audio,2024.1.5,122.30707790928385,
4_con_duration,0.08,4,33,6,402,3,,,,601.1861414069456,601.2689683664154,601.3693862672343,601.4523257834168,601.5527436842357,601.6352760334063,601.7356939342252,601.8188854084088,,,,,,,,,1,1,2024-10-14_17h29.23.380,audio,2024.1.5,122.30707790928385,
4_con_rate,0.02,4,33,7,403,9,,,,602.6222286149598,602.6435526584188,602.7439705592377,602.763499991395,602.8639178922139,602.8964333254058,602.9968512262247,603.0206489084027,,,,,,,,,1,1,2024-10-14_17h29.23.380,audio,2024.1.5,122.30707790928385,
6_con_duration,0.02,6,33,8,404,5,,,,603.8239921149536,603.8451634084137,603.9455813092326,603.9684368663962,604.0688547672152,604.0964264914015,604.1968443922204,604.2199758254079,604.3203937262268,604.3438452414208,604.4442631422397,604.4670364084101,,,,,1,1,2024-10-14_17h29.23.380,audio,2024.1.5,122.30707790928385,
2_con_duration,0.26,2,33,9,405,1,,,,605.270379614961,605.5307739504002,605.6311918512191,605.8973820334155,,,,,,,,,,,,,1,1,2024-10-14_17h29.23.380,audio,2024.1.5,122.30707790928385,
1_con_rate,0.02,1,33,10,406,6,,,,606.7007252399665,606.7304001584213,,,,,,,,,,,,,,,1,1,2024-10-14_17h29.23.380,audio,2024.1.5,122.30707790928385,
2_con_rate,0.02,2,33,11,407,7,,,,607.5337433649722,607.5543477413972,607.6547656422161,607.6771792414162,,,,,,,,,5.wav,608.4758872500097,5.mp4,608.4758872500097,1,1,2024-10-14_17h29.23.380,audio,2024.1.5,122.30707790928385,
5_con_duration,0.044,5,34,0,408,4,,,,610.2990780815541,610.3465107003955,610.4469286012144,610.497103700394,610.5975216012129,610.6473101163953,610.7477280172142,610.7971375754074,610.8975554762263,610.9465505754139,,,,,,,1,1,2024-10-14_17h29.23.380,audio,2024.1.5,122.30707790928385,
1_con_rate,0.02,1,34,1,409,6,,,,611.7498937819648,611.7798064083996,,,,,,,,,,,,,,,1,1,2024-10-14_17h29.23.380,audio,2024.1.5,122.30707790928385,
6_con_rate,0.02,6,34,2,410,11,,,,612.5831496149506,612.6133511164022,612.7137690172211,612.7467668254191,612.847184726238,612.8701344084199,612.9705523092388,612.9927096164116,613.0931275172305,613.1165992004186,613.2170171012375,613.2472537004011,,,,,1,1,2024-10-14_17h29.23.380,audio,2024.1.5,122.30707790928385,
3_con_rate,0.02,3,34,3,411,8,,,,614.050596906952,614.0803519914131,614.180769892232,614.1999229083973,614.3003408092162,614.3301044504129,,,,,,,,,,,1,1,2024-10-14_17h29.23.380,audio,2024.1.5,122.30707790928385,
4_con_rate,0.02,4,34,4,412,9,,,,615.1334476569639,615.1535484504217,615.2539663512406,615.2807559504087,615.3811738512276,615.4133596163971,615.513777517216,615.5375145754166,,,,,,,,,1,1,2024-10-14_17h29.23.380,audio,2024.1.5,122.30707790928385,
1_con_duration,0.62,1,34,5,413,0,,,,616.3408577819675,616.9644737004215,,,,,,,,,,,,,,,1,1,2024-10-14_17h29.23.380,audio,2024.1.5,122.30707790928385,
6_con_duration,0.02,6,34,6,414,5,,,,617.7678169069725,617.7970257834037,617.8974436842226,617.9211597414193,618.0215776422382,618.0451875754021,618.145605476221,618.1682335753954,618.2686514762144,618.297199866394,618.3976177672129,618.4301606584137,,,,,1,1,2024-10-14_17h29.23.380,audio,2024.1.5,122.30707790928385,
4_con_duration,0.08,4,34,7,415,3,,,,619.2335038649646,619.3140062833933,619.4144241842122,619.4974352004152,619.5978531012341,619.6804452414013,619.7808631422203,619.8640044914006,,,,,,,,,1,1,2024-10-14_17h29.23.380,audio,2024.1.5,122.30707790928385,
5_con_rate,0.02,5,34,8,416,10,,,,620.6673476979515,620.6966702833976,620.7970881842165,620.8211064914154,620.9215243922343,620.947348241412,621.0477661422309,621.080099658409,621.180517559228,621.2043211584183,,,,,,,1,1,2024-10-14_17h29.23.380,audio,2024.1.5,122.30707790928385,
2_con_rate,0.02,2,34,9,417,7,,,,622.0076643649693,622.0289277414064,622.1293456422253,622.1515017834114,,,,,,,,,,,,,1,1,2024-10-14_17h29.23.380,audio,2024.1.5,122.30707790928385,
