condition,duration,numerosity,trials.thisRepN,trials.thisTrialN,trials.thisN,trials.thisIndex,thisRow.t,notes,text_welcome.started,image_name,image.started,image.stopped,audio_name,audio_started,movie_name,movie_started,participant,session,date|hid,expName|hid,psychopyVersion|hid,frameRate,
6_con_circum,0.25,6,0,0,0,17,,,114.67734483396634,6_con_circum_image_24.png,124.3015770006498,124.55852504162273,,,,,1,1,2024-10-17_16h38.27.539,visual,2024.1.5,None,
1_con_totaldot,0.25,1,0,1,1,6,,,,1_con_totaldot_image_20.png,124.66749112566855,124.92501970864056,,,,,1,1,2024-10-17_16h38.27.539,visual,2024.1.5,None,
2_con_singledot,0.25,2,0,2,2,1,,,,2_con_singledot_image_57.png,125.03167212565118,125.28345695865961,,,,,1,1,2024-10-17_16h38.27.539,visual,2024.1.5,None,
2_con_circum,0.25,2,0,3,3,13,,,,2_con_circum_image_20.png,125.39213737562919,125.64166212565421,,,,,1,1,2024-10-17_16h38.27.539,visual,2024.1.5,None,
1_con_singledot,0.25,1,0,4,4,0,,,,1_con_singledot_image_30.png,125.74851900062446,126.00041858363353,,,,,1,1,2024-10-17_16h38.27.539,visual,2024.1.5,None,
5_con_singledot,0.25,5,0,5,5,4,,,,5_con_singledot_image_24.png,126.10853329163898,126.35770837567203,,,,,1,1,2024-10-17_16h38.27.539,visual,2024.1.5,None,
3_con_totaldot,0.25,3,0,6,6,8,,,,3_con_totaldot_image_38.png,126.46437854165366,126.71569037565884,,,,,1,1,2024-10-17_16h38.27.539,visual,2024.1.5,None,
3_con_circum,0.25,3,0,7,7,14,,,,3_con_circum_image_12.png,126.82474145866387,127.07582570863111,,,,,1,1,2024-10-17_16h38.27.539,visual,2024.1.5,None,
1_con_circum,0.25,1,0,8,8,12,,,,1_con_circum_image_50.png,127.18447141666353,127.44209537562371,,,,,1,1,2024-10-17_16h38.27.539,visual,2024.1.5,None,
6_con_totaldot,0.25,6,0,9,9,11,,,,6_con_totaldot_image_5.png,127.55075175067564,127.80047104164647,,,,,1,1,2024-10-17_16h38.27.539,visual,2024.1.5,None,
5_con_circum,0.25,5,0,10,10,16,,,,5_con_circum_image_1.png,127.90929670867432,128.159009041676,,,,,1,1,2024-10-17_16h38.27.539,visual,2024.1.5,None,
4_con_totaldot,0.25,4,0,11,11,9,,,,4_con_totaldot_image_31.png,128.26748400062013,128.52516829164622,,,,,1,1,2024-10-17_16h38.27.539,visual,2024.1.5,None,
4_con_singledot,0.25,4,0,12,12,3,,,,4_con_singledot_image_57.png,128.63399145865503,128.89138504164683,,,,,1,1,2024-10-17_16h38.27.539,visual,2024.1.5,None,
2_con_totaldot,0.25,2,0,13,13,7,,,,2_con_totaldot_image_4.png,128.9995926256214,129.25058741664205,,,,,1,1,2024-10-17_16h38.27.539,visual,2024.1.5,None,
6_con_singledot,0.25,6,0,14,14,5,,,,6_con_singledot_image_61.png,129.35871554162975,129.6080470836644,,,,,1,1,2024-10-17_16h38.27.539,visual,2024.1.5,None,
3_con_singledot,0.25,3,0,15,15,2,,,,3_con_singledot_image_32.png,129.71478495865983,129.96541512565844,,,,,1,1,2024-10-17_16h38.27.539,visual,2024.1.5,None,
4_con_circum,0.25,4,0,16,16,15,,,,4_con_circum_image_58.png,130.07555150062933,130.32537504163727,,,,,1,1,2024-10-17_16h38.27.539,visual,2024.1.5,None,
5_con_totaldot,0.25,5,0,17,17,10,,,,5_con_totaldot_image_38.png,130.43234412566915,130.6839960006221,2.wav,130.77575687499484,16.mp4,130.77575687499484,1,1,2024-10-17_16h38.27.539,visual,2024.1.5,None,
3_con_circum,0.25,3,1,0,18,14,,,,3_con_circum_image_50.png,132.6542390416299,132.90870391665183,,,,,1,1,2024-10-17_16h38.27.539,visual,2024.1.5,None,
4_con_circum,0.25,4,1,1,19,15,,,,4_con_circum_image_39.png,133.0160749586338,133.274570416663,,,,,1,1,2024-10-17_16h38.27.539,visual,2024.1.5,None,
5_con_totaldot,0.25,5,1,2,20,10,,,,5_con_totaldot_image_67.png,133.38146104165742,133.63217883365385,,,,,1,1,2024-10-17_16h38.27.539,visual,2024.1.5,None,
1_con_singledot,0.25,1,1,3,21,0,,,,1_con_singledot_image_38.png,133.74199037565074,133.9997671256463,,,,,1,1,2024-10-17_16h38.27.539,visual,2024.1.5,None,
2_con_totaldot,0.25,2,1,4,22,7,,,,2_con_totaldot_image_36.png,134.11000895863788,134.36590191664098,,,,,1,1,2024-10-17_16h38.27.539,visual,2024.1.5,None,
6_con_totaldot,0.25,6,1,5,23,11,,,,6_con_totaldot_image_59.png,134.47514841667532,134.7246162086415,,,,,1,1,2024-10-17_16h38.27.539,visual,2024.1.5,None,
4_con_singledot,0.25,4,1,6,24,3,,,,4_con_singledot_image_60.png,134.8314309166434,135.0842608756541,,,,,1,1,2024-10-17_16h38.27.539,visual,2024.1.5,None,
1_con_circum,0.25,1,1,7,25,12,,,,1_con_circum_image_56.png,135.1926511256296,135.44254829164518,,,,,1,1,2024-10-17_16h38.27.539,visual,2024.1.5,None,
2_con_singledot,0.25,2,1,8,26,1,,,,2_con_singledot_image_19.png,135.5510273336239,135.8090434166409,,,,,1,1,2024-10-17_16h38.27.539,visual,2024.1.5,None,
6_con_circum,0.25,6,1,9,27,17,,,,6_con_circum_image_47.png,135.91742058362968,136.17545716662815,,,,,1,1,2024-10-17_16h38.27.539,visual,2024.1.5,None,
6_con_singledot,0.25,6,1,10,28,5,,,,6_con_singledot_image_57.png,136.2844434586276,136.54201329162268,,,,,1,1,2024-10-17_16h38.27.539,visual,2024.1.5,None,
1_con_totaldot,0.25,1,1,11,29,6,,,,1_con_totaldot_image_22.png,136.650546750663,136.90059725067502,,,,,1,1,2024-10-17_16h38.27.539,visual,2024.1.5,None,
5_con_circum,0.25,5,1,12,30,16,,,,5_con_circum_image_30.png,137.00909600066177,137.25902412564417,,,,,1,1,2024-10-17_16h38.27.539,visual,2024.1.5,None,
3_con_totaldot,0.25,3,1,13,31,8,,,,3_con_totaldot_image_37.png,137.36731812564346,137.61699091666767,,,,,1,1,2024-10-17_16h38.27.539,visual,2024.1.5,None,
2_con_circum,0.25,2,1,14,32,13,,,,2_con_circum_image_61.png,137.72465245864976,137.97508333361864,,,,,1,1,2024-10-17_16h38.27.539,visual,2024.1.5,None,
4_con_totaldot,0.25,4,1,15,33,9,,,,4_con_totaldot_image_33.png,138.08188766662886,138.33363187563762,,,,,1,1,2024-10-17_16h38.27.539,visual,2024.1.5,None,
3_con_singledot,0.25,3,1,16,34,2,,,,3_con_singledot_image_49.png,138.44228558367274,138.6925855006596,,,,,1,1,2024-10-17_16h38.27.539,visual,2024.1.5,None,
5_con_singledot,0.25,5,1,17,35,4,,,,5_con_singledot_image_47.png,138.80088262565357,139.05883412564097,5.wav,139.1507988749654,6.mp4,139.1507988749654,1,1,2024-10-17_16h38.27.539,visual,2024.1.5,None,
5_con_singledot,0.25,5,2,0,36,4,,,,5_con_singledot_image_5.png,140.9944213336722,141.2499360006225,,,,,1,1,2024-10-17_16h38.27.539,visual,2024.1.5,None,
1_con_circum,0.25,1,2,1,37,12,,,,1_con_circum_image_39.png,141.35786104164242,141.6083465416489,,,,,1,1,2024-10-17_16h38.27.539,visual,2024.1.5,None,
6_con_totaldot,0.25,6,2,2,38,11,,,,6_con_totaldot_image_15.png,141.71730845866648,141.97582479165092,,,,,1,1,2024-10-17_16h38.27.539,visual,2024.1.5,None,
1_con_totaldot,0.25,1,2,3,39,6,,,,1_con_totaldot_image_18.png,142.08418370867537,142.34219562565366,,,,,1,1,2024-10-17_16h38.27.539,visual,2024.1.5,None,
6_con_singledot,0.25,6,2,4,40,5,,,,6_con_singledot_image_25.png,142.45079020867513,142.70882800064672,,,,,1,1,2024-10-17_16h38.27.539,visual,2024.1.5,None,
2_con_singledot,0.25,2,2,5,41,1,,,,2_con_singledot_image_23.png,142.81744408365728,143.0755772916639,,,,,1,1,2024-10-17_16h38.27.539,visual,2024.1.5,None,
2_con_totaldot,0.25,2,2,6,42,7,,,,2_con_totaldot_image_35.png,143.18424695866804,143.43411204166867,,,,,1,1,2024-10-17_16h38.27.539,visual,2024.1.5,None,
2_con_circum,0.25,2,2,7,43,13,,,,2_con_circum_image_3.png,143.5423207506227,143.79224483366514,,,,,1,1,2024-10-17_16h38.27.539,visual,2024.1.5,None,
3_con_singledot,0.25,3,2,8,44,2,,,,3_con_singledot_image_10.png,143.89902179167063,144.1489026256643,,,,,1,1,2024-10-17_16h38.27.539,visual,2024.1.5,None,
3_con_circum,0.25,3,2,9,45,14,,,,3_con_circum_image_11.png,144.2589026666518,144.5088660416698,,,,,1,1,2024-10-17_16h38.27.539,visual,2024.1.5,None,
4_con_circum,0.25,4,2,10,46,15,,,,4_con_circum_image_63.png,144.61559204166213,144.8653515006338,,,,,1,1,2024-10-17_16h38.27.539,visual,2024.1.5,None,
5_con_totaldot,0.25,5,2,11,47,10,,,,5_con_totaldot_image_13.png,144.9760219166327,145.2256624586337,,,,,1,1,2024-10-17_16h38.27.539,visual,2024.1.5,None,
5_con_circum,0.25,5,2,12,48,16,,,,5_con_circum_image_56.png,145.33243025062063,145.58420104167115,,,,,1,1,2024-10-17_16h38.27.539,visual,2024.1.5,None,
3_con_totaldot,0.25,3,2,13,49,8,,,,3_con_totaldot_image_58.png,145.69234220866736,145.94209283363696,,,,,1,1,2024-10-17_16h38.27.539,visual,2024.1.5,None,
4_con_singledot,0.25,4,2,14,50,3,,,,4_con_singledot_image_44.png,146.04914395863113,146.29913570866145,,,,,1,1,2024-10-17_16h38.27.539,visual,2024.1.5,None,
6_con_circum,0.25,6,2,15,51,17,,,,6_con_circum_image_5.png,146.4094412506364,146.6593548336571,,,,,1,1,2024-10-17_16h38.27.539,visual,2024.1.5,None,
1_con_singledot,0.25,1,2,16,52,0,,,,1_con_singledot_image_19.png,146.7678564166689,147.02597241662832,,,,,1,1,2024-10-17_16h38.27.539,visual,2024.1.5,None,
4_con_totaldot,0.25,4,2,17,53,9,,,,4_con_totaldot_image_5.png,147.13324662562616,147.3827093336188,4.wav,147.47595145896776,14.mp4,147.47595145896776,1,1,2024-10-17_16h38.27.539,visual,2024.1.5,None,
6_con_circum,0.25,6,3,0,54,17,,,,6_con_circum_image_57.png,149.30975595863228,149.55913212564,,,,,1,1,2024-10-17_16h38.27.539,visual,2024.1.5,None,
6_con_totaldot,0.25,6,3,1,55,11,,,,6_con_totaldot_image_3.png,149.66653320865396,149.91749925061984,,,,,1,1,2024-10-17_16h38.27.539,visual,2024.1.5,None,
3_con_totaldot,0.25,3,3,2,56,8,,,,3_con_totaldot_image_62.png,150.02633695865904,150.27591437567415,,,,,1,1,2024-10-17_16h38.27.539,visual,2024.1.5,None,
1_con_singledot,0.25,1,3,3,57,0,,,,1_con_singledot_image_34.png,150.38500629164434,150.64206366666284,,,,,1,1,2024-10-17_16h38.27.539,visual,2024.1.5,None,
4_con_circum,0.25,4,3,4,58,15,,,,4_con_circum_image_35.png,150.74888070867553,151.0001236256251,,,,,1,1,2024-10-17_16h38.27.539,visual,2024.1.5,None,
2_con_circum,0.25,2,3,5,59,13,,,,2_con_circum_image_64.png,151.1090975006499,151.35970175062928,,,,,1,1,2024-10-17_16h38.27.539,visual,2024.1.5,None,
4_con_singledot,0.25,4,3,6,60,3,,,,4_con_singledot_image_64.png,151.468189083649,151.72595133365056,,,,,1,1,2024-10-17_16h38.27.539,visual,2024.1.5,None,
3_con_singledot,0.25,3,3,7,61,2,,,,3_con_singledot_image_48.png,151.83278650065574,152.08276025066542,,,,,1,1,2024-10-17_16h38.27.539,visual,2024.1.5,None,
5_con_circum,0.25,5,3,8,62,16,,,,5_con_circum_image_57.png,152.19270079166552,152.443002041666,,,,,1,1,2024-10-17_16h38.27.539,visual,2024.1.5,None,
3_con_circum,0.25,3,3,9,63,14,,,,3_con_circum_image_30.png,152.55160587563103,152.8086767916723,,,,,1,1,2024-10-17_16h38.27.539,visual,2024.1.5,None,
1_con_circum,0.25,1,3,10,64,12,,,,1_con_circum_image_67.png,152.91626125064602,153.17106862564495,,,,,1,1,2024-10-17_16h38.27.539,visual,2024.1.5,None,
2_con_totaldot,0.25,2,3,11,65,7,,,,2_con_totaldot_image_58.png,153.28039537565007,153.53247395862516,,,,,1,1,2024-10-17_16h38.27.539,visual,2024.1.5,None,
2_con_singledot,0.25,2,3,12,66,1,,,,2_con_singledot_image_10.png,153.64281150066915,153.89259254164452,,,,,1,1,2024-10-17_16h38.27.539,visual,2024.1.5,None,
5_con_totaldot,0.25,5,3,13,67,10,,,,5_con_totaldot_image_28.png,153.99960491663467,154.2497292086521,,,,,1,1,2024-10-17_16h38.27.539,visual,2024.1.5,None,
4_con_totaldot,0.25,4,3,14,68,9,,,,4_con_totaldot_image_39.png,154.35860600063268,154.60845620866556,,,,,1,1,2024-10-17_16h38.27.539,visual,2024.1.5,None,
5_con_singledot,0.25,5,3,15,69,4,,,,5_con_singledot_image_2.png,154.71600316665524,154.96810562565614,,,,,1,1,2024-10-17_16h38.27.539,visual,2024.1.5,None,
1_con_totaldot,0.25,1,3,16,70,6,,,,1_con_totaldot_image_31.png,155.0763647506518,155.32643733366083,,,,,1,1,2024-10-17_16h38.27.539,visual,2024.1.5,None,
6_con_singledot,0.25,6,3,17,71,5,,,,6_con_singledot_image_3.png,155.43469329163588,155.6925570006754,4.wav,155.7843189589912,3.mp4,155.7843189589912,1,1,2024-10-17_16h38.27.539,visual,2024.1.5,None,
3_con_circum,0.25,3,4,0,72,14,,,,3_con_circum_image_13.png,157.63507233363734,157.89263054164283,,,,,1,1,2024-10-17_16h38.27.539,visual,2024.1.5,None,
6_con_circum,0.25,6,4,1,73,17,,,,6_con_circum_image_19.png,158.0012236666206,158.25948604167596,,,,,1,1,2024-10-17_16h38.27.539,visual,2024.1.5,None,
5_con_totaldot,0.25,5,4,2,74,10,,,,5_con_totaldot_image_56.png,158.36790004165766,158.62586812564794,,,,,1,1,2024-10-17_16h38.27.539,visual,2024.1.5,None,
4_con_circum,0.25,4,4,3,75,15,,,,4_con_circum_image_53.png,158.73442987564874,158.99188658362644,,,,,1,1,2024-10-17_16h38.27.539,visual,2024.1.5,None,
6_con_totaldot,0.25,6,4,4,76,11,,,,6_con_totaldot_image_52.png,159.09880037561913,159.35203650064457,,,,,1,1,2024-10-17_16h38.27.539,visual,2024.1.5,None,
2_con_circum,0.25,2,4,5,77,13,,,,2_con_circum_image_41.png,159.45900504165718,159.70943995862424,,,,,1,1,2024-10-17_16h38.27.539,visual,2024.1.5,None,
6_con_singledot,0.25,6,4,6,78,5,,,,6_con_singledot_image_64.png,159.8163838756426,160.06578266667591,,,,,1,1,2024-10-17_16h38.27.539,visual,2024.1.5,None,
2_con_totaldot,0.25,2,4,7,79,7,,,,2_con_totaldot_image_1.png,160.177946666632,160.43300775066407,,,,,1,1,2024-10-17_16h38.27.539,visual,2024.1.5,None,
3_con_singledot,0.25,3,4,8,80,2,,,,3_con_singledot_image_44.png,160.54271258364122,160.79264187562902,,,,,1,1,2024-10-17_16h38.27.539,visual,2024.1.5,None,
2_con_singledot,0.25,2,4,9,81,1,,,,2_con_singledot_image_15.png,160.90152833363197,161.15943391662248,,,,,1,1,2024-10-17_16h38.27.539,visual,2024.1.5,None,
5_con_singledot,0.25,5,4,10,82,4,,,,5_con_singledot_image_43.png,161.2680900006361,161.52607108361943,,,,,1,1,2024-10-17_16h38.27.539,visual,2024.1.5,None,
1_con_singledot,0.25,1,4,11,83,0,,,,1_con_singledot_image_55.png,161.63467450064297,161.89294350066146,,,,,1,1,2024-10-17_16h38.27.539,visual,2024.1.5,None,
4_con_totaldot,0.25,4,4,12,84,9,,,,4_con_totaldot_image_46.png,162.0014710006343,162.2595898756447,,,,,1,1,2024-10-17_16h38.27.539,visual,2024.1.5,None,
5_con_circum,0.25,5,4,13,85,16,,,,5_con_circum_image_15.png,162.36814479165866,162.61816108366864,,,,,1,1,2024-10-17_16h38.27.539,visual,2024.1.5,None,
4_con_singledot,0.25,4,4,14,86,3,,,,4_con_singledot_image_10.png,162.7263815416644,162.9759091256458,,,,,1,1,2024-10-17_16h38.27.539,visual,2024.1.5,None,
1_con_circum,0.25,1,4,15,87,12,,,,1_con_circum_image_16.png,163.0828582916564,163.3349010416462,,,,,1,1,2024-10-17_16h38.27.539,visual,2024.1.5,None,
3_con_totaldot,0.25,3,4,16,88,8,,,,3_con_totaldot_image_29.png,163.44376566665403,163.70011379162705,,,,,1,1,2024-10-17_16h38.27.539,visual,2024.1.5,None,
1_con_totaldot,0.25,1,4,17,89,6,,,,1_con_totaldot_image_25.png,163.80930650062317,164.05985658365924,1.wav,164.15177508397028,13.mp4,164.15177508397028,1,1,2024-10-17_16h38.27.539,visual,2024.1.5,None,
6_con_singledot,0.25,6,5,0,90,5,,,,6_con_singledot_image_53.png,166.0201253756687,166.27650579164427,,,,,1,1,2024-10-17_16h38.27.539,visual,2024.1.5,None,
2_con_totaldot,0.25,2,5,1,91,7,,,,2_con_totaldot_image_5.png,166.38486479167284,166.6431864586232,,,,,1,1,2024-10-17_16h38.27.539,visual,2024.1.5,None,
3_con_singledot,0.25,3,5,2,92,2,,,,3_con_singledot_image_18.png,166.7520284586625,167.0013722916522,,,,,1,1,2024-10-17_16h38.27.539,visual,2024.1.5,None,
1_con_totaldot,0.25,1,5,3,93,6,,,,1_con_totaldot_image_10.png,167.1107681256525,167.35981366667355,,,,,1,1,2024-10-17_16h38.27.539,visual,2024.1.5,None,
6_con_circum,0.25,6,5,4,94,17,,,,6_con_circum_image_30.png,167.46807391664868,167.7253497916429,,,,,1,1,2024-10-17_16h38.27.539,visual,2024.1.5,None,
5_con_circum,0.25,5,5,5,95,16,,,,5_con_circum_image_62.png,167.83218500067403,168.08308612567296,,,,,1,1,2024-10-17_16h38.27.539,visual,2024.1.5,None,
5_con_singledot,0.25,5,5,6,96,4,,,,5_con_singledot_image_50.png,168.19325620864208,168.44333375065278,,,,,1,1,2024-10-17_16h38.27.539,visual,2024.1.5,None,
2_con_singledot,0.25,2,5,7,97,1,,,,2_con_singledot_image_32.png,168.5518145006189,168.80949800066108,,,,,1,1,2024-10-17_16h38.27.539,visual,2024.1.5,None,
4_con_circum,0.25,4,5,8,98,15,,,,4_con_circum_image_13.png,168.91817362562676,169.1685635416691,,,,,1,1,2024-10-17_16h38.27.539,visual,2024.1.5,None,
4_con_singledot,0.25,4,5,9,99,3,,,,4_con_singledot_image_35.png,169.27727745866093,169.52646700066205,,,,,1,1,2024-10-17_16h38.27.539,visual,2024.1.5,None,
3_con_circum,0.25,3,5,10,100,14,,,,3_con_circum_image_27.png,169.6347372086292,169.8844343756248,,,,,1,1,2024-10-17_16h38.27.539,visual,2024.1.5,None,
2_con_circum,0.25,2,5,11,101,13,,,,2_con_circum_image_42.png,169.99288333367247,170.24220241664833,,,,,1,1,2024-10-17_16h38.27.539,visual,2024.1.5,None,
1_con_singledot,0.25,1,5,12,102,0,,,,1_con_singledot_image_11.png,170.34919904163496,170.5991608336374,,,,,1,1,2024-10-17_16h38.27.539,visual,2024.1.5,None,
6_con_totaldot,0.25,6,5,13,103,11,,,,6_con_totaldot_image_24.png,170.7100331666569,170.9656532916745,,,,,1,1,2024-10-17_16h38.27.539,visual,2024.1.5,None,
5_con_totaldot,0.25,5,5,14,104,10,,,,5_con_totaldot_image_16.png,171.07547329165197,171.32663208363036,,,,,1,1,2024-10-17_16h38.27.539,visual,2024.1.5,None,
4_con_totaldot,0.25,4,5,15,105,9,,,,4_con_totaldot_image_14.png,171.4353586666674,171.692894625656,,,,,1,1,2024-10-17_16h38.27.539,visual,2024.1.5,None,
3_con_totaldot,0.25,3,5,16,106,8,,,,3_con_totaldot_image_23.png,171.7997854586264,172.04980229167657,,,,,1,1,2024-10-17_16h38.27.539,visual,2024.1.5,None,
1_con_circum,0.25,1,5,17,107,12,,,,1_con_circum_image_37.png,172.15966950062818,172.4088399586656,2.wav,172.50050158397062,11.mp4,172.50050158397062,1,1,2024-10-17_16h38.27.539,visual,2024.1.5,None,
4_con_totaldot,0.25,4,6,0,108,9,,,,4_con_totaldot_image_47.png,174.36372137566022,174.61581158364814,,,,,1,1,2024-10-17_16h38.27.539,visual,2024.1.5,None,
3_con_totaldot,0.25,3,6,1,109,8,,,,3_con_totaldot_image_10.png,174.7263947506707,174.97649716661934,,,,,1,1,2024-10-17_16h38.27.539,visual,2024.1.5,None,
2_con_totaldot,0.25,2,6,2,110,7,,,,2_con_totaldot_image_26.png,175.08492995865333,175.34348100063315,,,,,1,1,2024-10-17_16h38.27.539,visual,2024.1.5,None,
2_con_singledot,0.25,2,6,3,111,1,,,,2_con_singledot_image_9.png,175.45187254165455,175.70997012564138,,,,,1,1,2024-10-17_16h38.27.539,visual,2024.1.5,None,
5_con_totaldot,0.25,5,6,4,112,10,,,,5_con_totaldot_image_7.png,175.81827125066582,176.07646283362217,,,,,1,1,2024-10-17_16h38.27.539,visual,2024.1.5,None,
2_con_circum,0.25,2,6,5,113,13,,,,2_con_circum_image_11.png,176.18499762567615,176.44254195865167,,,,,1,1,2024-10-17_16h38.27.539,visual,2024.1.5,None,
6_con_singledot,0.25,6,6,6,114,5,,,,6_con_singledot_image_65.png,176.55150779164785,176.80147475062793,,,,,1,1,2024-10-17_16h38.27.539,visual,2024.1.5,None,
3_con_singledot,0.25,3,6,7,115,2,,,,3_con_singledot_image_37.png,176.9096178336457,177.15941904165473,,,,,1,1,2024-10-17_16h38.27.539,visual,2024.1.5,None,
1_con_circum,0.25,1,6,8,116,12,,,,1_con_circum_image_63.png,177.2661407916729,177.51647450065164,,,,,1,1,2024-10-17_16h38.27.539,visual,2024.1.5,None,
1_con_totaldot,0.25,1,6,9,117,6,,,,1_con_totaldot_image_44.png,177.62655183367121,177.87648229167488,,,,,1,1,2024-10-17_16h38.27.539,visual,2024.1.5,None,
6_con_totaldot,0.25,6,6,10,118,11,,,,6_con_totaldot_image_69.png,177.9832924166384,178.23274125066044,,,,,1,1,2024-10-17_16h38.27.539,visual,2024.1.5,None,
1_con_singledot,0.25,1,6,11,119,0,,,,1_con_singledot_image_21.png,178.3433210836646,178.59323112562222,,,,,1,1,2024-10-17_16h38.27.539,visual,2024.1.5,None,
4_con_circum,0.25,4,6,12,120,15,,,,4_con_circum_image_51.png,178.70202650062663,178.9604696666395,,,,,1,1,2024-10-17_16h38.27.539,visual,2024.1.5,None,
5_con_singledot,0.25,5,6,13,121,4,,,,5_con_singledot_image_48.png,179.0691271666709,179.3261337916522,,,,,1,1,2024-10-17_16h38.27.539,visual,2024.1.5,None,
5_con_circum,0.25,5,6,14,122,16,,,,5_con_circum_image_37.png,179.43281716664012,179.68270758365205,,,,,1,1,2024-10-17_16h38.27.539,visual,2024.1.5,None,
6_con_circum,0.25,6,6,15,123,17,,,,6_con_circum_image_62.png,179.79310170866472,180.04317495867534,,,,,1,1,2024-10-17_16h38.27.539,visual,2024.1.5,None,
4_con_singledot,0.25,4,6,16,124,3,,,,4_con_singledot_image_17.png,180.15154833366785,180.41002412565675,,,,,1,1,2024-10-17_16h38.27.539,visual,2024.1.5,None,
3_con_circum,0.25,3,6,17,125,14,,,,3_con_circum_image_60.png,180.5191715416421,180.77650483366259,5.wav,180.86872954200953,13.mp4,180.86872954200953,1,1,2024-10-17_16h38.27.539,visual,2024.1.5,None,
6_con_totaldot,0.25,6,7,0,126,11,,,,6_con_totaldot_image_33.png,182.7133979586225,182.96655370865872,,,,,1,1,2024-10-17_16h38.27.539,visual,2024.1.5,None,
6_con_circum,0.25,6,7,1,127,17,,,,6_con_circum_image_35.png,183.0765422916428,183.32810600067413,,,,,1,1,2024-10-17_16h38.27.539,visual,2024.1.5,None,
2_con_singledot,0.25,2,7,2,128,1,,,,2_con_singledot_image_28.png,183.44358520864432,183.70060225064324,,,,,1,1,2024-10-17_16h38.27.539,visual,2024.1.5,None,
2_con_circum,0.25,2,7,3,129,13,,,,2_con_circum_image_39.png,183.8098057916194,184.0600221256648,,,,,1,1,2024-10-17_16h38.27.539,visual,2024.1.5,None,
6_con_singledot,0.25,6,7,4,130,5,,,,6_con_singledot_image_69.png,184.16831362564506,184.42660825065494,,,,,1,1,2024-10-17_16h38.27.539,visual,2024.1.5,None,
4_con_circum,0.25,4,7,5,131,15,,,,4_con_circum_image_7.png,184.53623975065227,184.7934259166398,,,,,1,1,2024-10-17_16h38.27.539,visual,2024.1.5,None,
4_con_totaldot,0.25,4,7,6,132,9,,,,4_con_totaldot_image_48.png,184.90010283366234,185.1502022916723,,,,,1,1,2024-10-17_16h38.27.539,visual,2024.1.5,None,
1_con_singledot,0.25,1,7,7,133,0,,,,1_con_singledot_image_52.png,185.25993858362006,185.50991608365828,,,,,1,1,2024-10-17_16h38.27.539,visual,2024.1.5,None,
5_con_circum,0.25,5,7,8,134,16,,,,5_con_circum_image_51.png,185.6167141666209,185.86674908362718,,,,,1,1,2024-10-17_16h38.27.539,visual,2024.1.5,None,
2_con_totaldot,0.25,2,7,9,135,7,,,,2_con_totaldot_image_31.png,185.97666675064636,186.2270687916355,,,,,1,1,2024-10-17_16h38.27.539,visual,2024.1.5,None,
3_con_singledot,0.25,3,7,10,136,2,,,,3_con_singledot_image_46.png,186.33573212564613,186.5933667506363,,,,,1,1,2024-10-17_16h38.27.539,visual,2024.1.5,None,
3_con_totaldot,0.25,3,7,11,137,8,,,,3_con_totaldot_image_51.png,186.70214312567066,186.959782000635,,,,,1,1,2024-10-17_16h38.27.539,visual,2024.1.5,None,
3_con_circum,0.25,3,7,12,138,14,,,,3_con_circum_image_70.png,187.06745016664888,187.3168835416475,,,,,1,1,2024-10-17_16h38.27.539,visual,2024.1.5,None,
1_con_circum,0.25,1,7,13,139,12,,,,1_con_circum_image_69.png,187.42579933363402,187.67665787565446,,,,,1,1,2024-10-17_16h38.27.539,visual,2024.1.5,None,
5_con_totaldot,0.25,5,7,14,140,10,,,,5_con_totaldot_image_22.png,187.7834160836336,188.0351062506709,,,,,1,1,2024-10-17_16h38.27.539,visual,2024.1.5,None,
1_con_totaldot,0.25,1,7,15,141,6,,,,1_con_totaldot_image_70.png,188.1438131666199,188.3992472916764,,,,,1,1,2024-10-17_16h38.27.539,visual,2024.1.5,None,
5_con_singledot,0.25,5,7,16,142,4,,,,5_con_singledot_image_15.png,188.51025575064511,188.7601417916633,,,,,1,1,2024-10-17_16h38.27.539,visual,2024.1.5,None,
4_con_singledot,0.25,4,7,17,143,3,,,,4_con_singledot_image_20.png,188.8691412506431,189.12625420862267,3.wav,189.21648624999216,13.mp4,189.21648624999216,1,1,2024-10-17_16h38.27.539,visual,2024.1.5,None,
5_con_totaldot,0.25,5,8,0,144,10,,,,5_con_totaldot_image_36.png,191.06746279164608,191.32716670865582,,,,,1,1,2024-10-17_16h38.27.539,visual,2024.1.5,None,
5_con_singledot,0.25,5,8,1,145,4,,,,5_con_singledot_image_66.png,191.43569120866402,191.69335037563386,,,,,1,1,2024-10-17_16h38.27.539,visual,2024.1.5,None,
2_con_circum,0.25,2,8,2,146,13,,,,2_con_circum_image_40.png,191.80201295864924,192.0607002506188,,,,,1,1,2024-10-17_16h38.27.539,visual,2024.1.5,None,
4_con_totaldot,0.25,4,8,3,147,9,,,,4_con_totaldot_image_23.png,192.1693657916311,192.42707141663803,,,,,1,1,2024-10-17_16h38.27.539,visual,2024.1.5,None,
3_con_totaldot,0.25,3,8,4,148,8,,,,3_con_totaldot_image_45.png,192.53572854163747,192.79301008367136,,,,,1,1,2024-10-17_16h38.27.539,visual,2024.1.5,None,
6_con_totaldot,0.25,6,8,5,149,11,,,,6_con_totaldot_image_14.png,192.90176787561893,193.1602678336242,,,,,1,1,2024-10-17_16h38.27.539,visual,2024.1.5,None,
3_con_circum,0.25,3,8,6,150,14,,,,3_con_circum_image_40.png,193.26904350062057,193.52648616664035,,,,,1,1,2024-10-17_16h38.27.539,visual,2024.1.5,None,
6_con_circum,0.25,6,8,7,151,17,,,,6_con_circum_image_51.png,193.63480720863834,193.8933593336299,,,,,1,1,2024-10-17_16h38.27.539,visual,2024.1.5,None,
4_con_circum,0.25,4,8,8,152,15,,,,4_con_circum_image_43.png,194.0020072086753,194.26039616665028,,,,,1,1,2024-10-17_16h38.27.539,visual,2024.1.5,None,
2_con_singledot,0.25,2,8,9,153,1,,,,2_con_singledot_image_14.png,194.36882162562495,194.62608412566286,,,,,1,1,2024-10-17_16h38.27.539,visual,2024.1.5,None,
2_con_totaldot,0.25,2,8,10,154,7,,,,2_con_totaldot_image_29.png,194.73421079167554,194.98379870865418,,,,,1,1,2024-10-17_16h38.27.539,visual,2024.1.5,None,
1_con_totaldot,0.25,1,8,11,155,6,,,,1_con_totaldot_image_28.png,195.09344570865312,195.34378041664993,,,,,1,1,2024-10-17_16h38.27.539,visual,2024.1.5,None,
6_con_singledot,0.25,6,8,12,156,5,,,,6_con_singledot_image_5.png,195.4523142916422,195.7102060416403,,,,,1,1,2024-10-17_16h38.27.539,visual,2024.1.5,None,
4_con_singledot,0.25,4,8,13,157,3,,,,4_con_singledot_image_23.png,195.81697604167664,196.06621658365864,,,,,1,1,2024-10-17_16h38.27.539,visual,2024.1.5,None,
1_con_singledot,0.25,1,8,14,158,0,,,,1_con_singledot_image_68.png,196.17679400063741,196.42680591665365,,,,,1,1,2024-10-17_16h38.27.539,visual,2024.1.5,None,
3_con_singledot,0.25,3,8,15,159,2,,,,3_con_singledot_image_12.png,196.53369183363782,196.7836876666445,,,,,1,1,2024-10-17_16h38.27.539,visual,2024.1.5,None,
5_con_circum,0.25,5,8,16,160,16,,,,5_con_circum_image_20.png,196.8927475836516,197.14261441666557,,,,,1,1,2024-10-17_16h38.27.539,visual,2024.1.5,None,
1_con_circum,0.25,1,8,17,161,12,,,,1_con_circum_image_43.png,197.24931325061868,197.5002431666401,3.wav,197.5938687089947,7.mp4,197.5938687089947,1,1,2024-10-17_16h38.27.539,visual,2024.1.5,None,
5_con_totaldot,0.25,5,9,0,162,10,,,,5_con_totaldot_image_3.png,199.44766579162487,199.700116541648,,,,,1,1,2024-10-17_16h38.27.539,visual,2024.1.5,None,
2_con_singledot,0.25,2,9,1,163,1,,,,2_con_singledot_image_12.png,199.80924829162348,200.06026850064907,,,,,1,1,2024-10-17_16h38.27.539,visual,2024.1.5,None,
4_con_singledot,0.25,4,9,2,164,3,,,,4_con_singledot_image_41.png,200.1670610006239,200.42716145865077,,,,,1,1,2024-10-17_16h38.27.539,visual,2024.1.5,None,
5_con_circum,0.25,5,9,3,165,16,,,,5_con_circum_image_42.png,200.53543370865907,200.7851343336554,,,,,1,1,2024-10-17_16h38.27.539,visual,2024.1.5,None,
3_con_circum,0.25,3,9,4,166,14,,,,3_con_circum_image_8.png,200.8931485416523,201.1433025416375,,,,,1,1,2024-10-17_16h38.27.539,visual,2024.1.5,None,
5_con_singledot,0.25,5,9,5,167,4,,,,5_con_singledot_image_65.png,201.2506299166397,201.5017824586287,,,,,1,1,2024-10-17_16h38.27.539,visual,2024.1.5,None,
6_con_singledot,0.25,6,9,6,168,5,,,,6_con_singledot_image_24.png,201.61028095867175,201.86010091664892,,,,,1,1,2024-10-17_16h38.27.539,visual,2024.1.5,None,
2_con_totaldot,0.25,2,9,7,169,7,,,,2_con_totaldot_image_27.png,201.96680537567397,202.21698595863225,,,,,1,1,2024-10-17_16h38.27.539,visual,2024.1.5,None,
1_con_circum,0.25,1,9,8,170,12,,,,1_con_circum_image_11.png,202.32689925064722,202.5768450006765,,,,,1,1,2024-10-17_16h38.27.539,visual,2024.1.5,None,
1_con_totaldot,0.25,1,9,9,171,6,,,,1_con_totaldot_image_41.png,202.68352758363278,202.9334907506748,,,,,1,1,2024-10-17_16h38.27.539,visual,2024.1.5,None,
6_con_totaldot,0.25,6,9,10,172,11,,,,6_con_totaldot_image_6.png,203.04380479166673,203.293640625667,,,,,1,1,2024-10-17_16h38.27.539,visual,2024.1.5,None,
3_con_singledot,0.25,3,9,11,173,2,,,,3_con_singledot_image_69.png,203.40041012564132,203.65051987563882,,,,,1,1,2024-10-17_16h38.27.539,visual,2024.1.5,None,
2_con_circum,0.25,2,9,12,174,13,,,,2_con_circum_image_18.png,203.75940029162837,204.00996575062553,,,,,1,1,2024-10-17_16h38.27.539,visual,2024.1.5,None,
4_con_totaldot,0.25,4,9,13,175,9,,,,4_con_totaldot_image_59.png,204.11676525065366,204.36622870865202,,,,,1,1,2024-10-17_16h38.27.539,visual,2024.1.5,None,
3_con_totaldot,0.25,3,9,14,176,8,,,,3_con_totaldot_image_31.png,204.47698570866294,204.72728758363908,,,,,1,1,2024-10-17_16h38.27.539,visual,2024.1.5,None,
4_con_circum,0.25,4,9,15,177,15,,,,4_con_circum_image_42.png,204.83567458364803,205.09397058363928,,,,,1,1,2024-10-17_16h38.27.539,visual,2024.1.5,None,
6_con_circum,0.25,6,9,16,178,17,,,,6_con_circum_image_44.png,205.20162920866085,205.46023170865763,,,,,1,1,2024-10-17_16h38.27.539,visual,2024.1.5,None,
1_con_singledot,0.25,1,9,17,179,0,,,,1_con_singledot_image_70.png,205.5690620836375,205.82713987562263,2.wav,205.9194369589677,4.mp4,205.9194369589677,1,1,2024-10-17_16h38.27.539,visual,2024.1.5,None,
1_con_circum,0.25,1,10,0,180,12,,,,1_con_circum_image_47.png,207.76174541663303,208.01874158363015,,,,,1,1,2024-10-17_16h38.27.539,visual,2024.1.5,None,
6_con_totaldot,0.25,6,10,1,181,11,,,,6_con_totaldot_image_2.png,208.13408483363844,208.3850856256361,,,,,1,1,2024-10-17_16h38.27.539,visual,2024.1.5,None,
2_con_circum,0.25,2,10,2,182,13,,,,2_con_circum_image_56.png,208.49311762561945,208.74373041664174,,,,,1,1,2024-10-17_16h38.27.539,visual,2024.1.5,None,
1_con_singledot,0.25,1,10,3,183,0,,,,1_con_singledot_image_57.png,208.85044204167014,209.10035920865292,,,,,1,1,2024-10-17_16h38.27.539,visual,2024.1.5,None,
2_con_totaldot,0.25,2,10,4,184,7,,,,2_con_totaldot_image_33.png,209.21040275067014,209.4599262086597,,,,,1,1,2024-10-17_16h38.27.539,visual,2024.1.5,None,
4_con_singledot,0.25,4,10,5,185,3,,,,4_con_singledot_image_43.png,209.56721483365789,209.81702383363543,,,,,1,1,2024-10-17_16h38.27.539,visual,2024.1.5,None,
6_con_singledot,0.25,6,10,6,186,5,,,,6_con_singledot_image_6.png,209.92626179163733,210.17653083365101,,,,,1,1,2024-10-17_16h38.27.539,visual,2024.1.5,None,
6_con_circum,0.25,6,10,7,187,17,,,,6_con_circum_image_41.png,210.2851752916739,210.54431245866388,,,,,1,1,2024-10-17_16h38.27.539,visual,2024.1.5,None,
5_con_singledot,0.25,5,10,8,188,4,,,,5_con_singledot_image_64.png,210.65267025065066,210.90996883367578,,,,,1,1,2024-10-17_16h38.27.539,visual,2024.1.5,None,
1_con_totaldot,0.25,1,10,9,189,6,,,,1_con_totaldot_image_56.png,211.0167588756575,211.2669504166736,,,,,1,1,2024-10-17_16h38.27.539,visual,2024.1.5,None,
2_con_singledot,0.25,2,10,10,190,1,,,,2_con_singledot_image_68.png,211.3775486256617,211.62710566661943,,,,,1,1,2024-10-17_16h38.27.539,visual,2024.1.5,None,
3_con_totaldot,0.25,3,10,11,191,8,,,,3_con_totaldot_image_49.png,211.73392916665568,211.98383466666954,,,,,1,1,2024-10-17_16h38.27.539,visual,2024.1.5,None,
5_con_totaldot,0.25,5,10,12,192,10,,,,5_con_totaldot_image_19.png,212.09358008365768,212.34317650064284,,,,,1,1,2024-10-17_16h38.27.539,visual,2024.1.5,None,
4_con_circum,0.25,4,10,13,193,15,,,,4_con_circum_image_4.png,212.4503523756556,212.70205241663305,,,,,1,1,2024-10-17_16h38.27.539,visual,2024.1.5,None,
3_con_singledot,0.25,3,10,14,194,2,,,,3_con_singledot_image_62.png,212.8100919166735,213.0605275836463,,,,,1,1,2024-10-17_16h38.27.539,visual,2024.1.5,None,
4_con_totaldot,0.25,4,10,15,195,9,,,,4_con_totaldot_image_34.png,213.16897579163003,213.4264739586545,,,,,1,1,2024-10-17_16h38.27.539,visual,2024.1.5,None,
5_con_circum,0.25,5,10,16,196,16,,,,5_con_circum_image_24.png,213.53333970866322,213.7831894166341,,,,,1,1,2024-10-17_16h38.27.539,visual,2024.1.5,None,
3_con_circum,0.25,3,10,17,197,14,,,,3_con_circum_image_36.png,213.89416954162687,214.14350650064105,1.wav,214.2338864170015,1.mp4,214.2338864170015,1,1,2024-10-17_16h38.27.539,visual,2024.1.5,None,
6_con_totaldot,0.25,6,11,0,198,11,,,,6_con_totaldot_image_41.png,216.09503975063953,216.35055533366202,,,,,1,1,2024-10-17_16h38.27.539,visual,2024.1.5,None,
3_con_totaldot,0.25,3,11,1,199,8,,,,3_con_totaldot_image_3.png,216.46050754163105,216.71066237567382,,,,,1,1,2024-10-17_16h38.27.539,visual,2024.1.5,None,
3_con_circum,0.25,3,11,2,200,14,,,,3_con_circum_image_61.png,216.81891791664918,217.0773069166501,,,,,1,1,2024-10-17_16h38.27.539,visual,2024.1.5,None,
2_con_totaldot,0.25,2,11,3,201,7,,,,2_con_totaldot_image_7.png,217.18572212566312,217.44403045863535,,,,,1,1,2024-10-17_16h38.27.539,visual,2024.1.5,None,
6_con_singledot,0.25,6,11,4,202,5,,,,6_con_singledot_image_26.png,217.5525940006754,217.81051275064627,,,,,1,1,2024-10-17_16h38.27.539,visual,2024.1.5,None,
5_con_totaldot,0.25,5,11,5,203,10,,,,5_con_totaldot_image_42.png,217.91858116662286,218.17726662563317,,,,,1,1,2024-10-17_16h38.27.539,visual,2024.1.5,None,
2_con_singledot,0.25,2,11,6,204,1,,,,2_con_singledot_image_47.png,218.28601016665732,218.543875958658,,,,,1,1,2024-10-17_16h38.27.539,visual,2024.1.5,None,
4_con_totaldot,0.25,4,11,7,205,9,,,,4_con_totaldot_image_64.png,218.65247987562714,218.91078862565726,,,,,1,1,2024-10-17_16h38.27.539,visual,2024.1.5,None,
2_con_circum,0.25,2,11,8,206,13,,,,2_con_circum_image_67.png,219.01915079165872,219.27762258367537,,,,,1,1,2024-10-17_16h38.27.539,visual,2024.1.5,None,
1_con_totaldot,0.25,1,11,9,207,6,,,,1_con_totaldot_image_26.png,219.38645337565492,219.6436952916595,,,,,1,1,2024-10-17_16h38.27.539,visual,2024.1.5,None,
4_con_circum,0.25,4,11,10,208,15,,,,4_con_circum_image_67.png,219.75035937563905,220.00067083363345,,,,,1,1,2024-10-17_16h38.27.539,visual,2024.1.5,None,
5_con_singledot,0.25,5,11,11,209,4,,,,5_con_singledot_image_38.png,220.11074770867515,220.36063841666717,,,,,1,1,2024-10-17_16h38.27.539,visual,2024.1.5,None,
1_con_singledot,0.25,1,11,12,210,0,,,,1_con_singledot_image_37.png,220.46745420867035,220.71779270866344,,,,,1,1,2024-10-17_16h38.27.539,visual,2024.1.5,None,
3_con_singledot,0.25,3,11,13,211,2,,,,3_con_singledot_image_39.png,220.82732333362026,221.0776232506653,,,,,1,1,2024-10-17_16h38.27.539,visual,2024.1.5,None,
4_con_singledot,0.25,4,11,14,212,3,,,,4_con_singledot_image_58.png,221.18614850062102,221.43642858363845,,,,,1,1,2024-10-17_16h38.27.539,visual,2024.1.5,None,
6_con_circum,0.25,6,11,15,213,17,,,,6_con_circum_image_38.png,221.54484062563085,221.79436341661884,,,,,1,1,2024-10-17_16h38.27.539,visual,2024.1.5,None,
1_con_circum,0.25,1,11,16,214,12,,,,1_con_circum_image_32.png,221.9010998336288,222.1519389586213,,,,,1,1,2024-10-17_16h38.27.539,visual,2024.1.5,None,
5_con_circum,0.25,5,11,17,215,16,,,,5_con_circum_image_34.png,222.2608146256224,222.5105910836758,1.wav,222.60104133398272,1.mp4,222.60104133398272,1,1,2024-10-17_16h38.27.539,visual,2024.1.5,None,
5_con_singledot,0.25,5,12,0,216,4,,,,5_con_singledot_image_27.png,224.4671595836563,224.7167142086585,,,,,1,1,2024-10-17_16h38.27.539,visual,2024.1.5,None,
6_con_totaldot,0.25,6,12,1,217,11,,,,6_con_totaldot_image_55.png,224.82808254167128,225.0771332916377,,,,,1,1,2024-10-17_16h38.27.539,visual,2024.1.5,None,
4_con_singledot,0.25,4,12,2,218,3,,,,4_con_singledot_image_38.png,225.1840347506494,225.4340165836659,,,,,1,1,2024-10-17_16h38.27.539,visual,2024.1.5,None,
1_con_singledot,0.25,1,12,3,219,0,,,,1_con_singledot_image_6.png,225.5443307086515,225.79461616662255,,,,,1,1,2024-10-17_16h38.27.539,visual,2024.1.5,None,
5_con_totaldot,0.25,5,12,4,220,10,,,,5_con_totaldot_image_2.png,225.90305833364062,226.1610797086653,,,,,1,1,2024-10-17_16h38.27.539,visual,2024.1.5,None,
3_con_singledot,0.25,3,12,5,221,2,,,,3_con_singledot_image_9.png,226.26780225065693,226.5174892086691,,,,,1,1,2024-10-17_16h38.27.539,visual,2024.1.5,None,
1_con_circum,0.25,1,12,6,222,12,,,,1_con_circum_image_49.png,226.6273990416356,226.87788000062963,,,,,1,1,2024-10-17_16h38.27.539,visual,2024.1.5,None,
6_con_circum,0.25,6,12,7,223,17,,,,6_con_circum_image_14.png,226.98639229163916,227.23616700066876,,,,,1,1,2024-10-17_16h38.27.539,visual,2024.1.5,None,
2_con_totaldot,0.25,2,12,8,224,7,,,,2_con_totaldot_image_47.png,227.34490945862296,227.5944027506669,,,,,1,1,2024-10-17_16h38.27.539,visual,2024.1.5,None,
3_con_circum,0.25,3,12,9,225,14,,,,3_con_circum_image_53.png,227.70304666666004,227.952946333626,,,,,1,1,2024-10-17_16h38.27.539,visual,2024.1.5,None,
5_con_circum,0.25,5,12,10,226,16,,,,5_con_circum_image_58.png,228.06101633366586,228.31117200066026,,,,,1,1,2024-10-17_16h38.27.539,visual,2024.1.5,None,
4_con_circum,0.25,4,12,11,227,15,,,,4_con_circum_image_60.png,228.41993737566906,228.67752658366615,,,,,1,1,2024-10-17_16h38.27.539,visual,2024.1.5,None,
6_con_singledot,0.25,6,12,12,228,5,,,,6_con_singledot_image_21.png,228.7860690836368,229.0445521256227,,,,,1,1,2024-10-17_16h38.27.539,visual,2024.1.5,None,
1_con_totaldot,0.25,1,12,13,229,6,,,,1_con_totaldot_image_35.png,229.15318008363636,229.41082766664138,,,,,1,1,2024-10-17_16h38.27.539,visual,2024.1.5,None,
3_con_totaldot,0.25,3,12,14,230,8,,,,3_con_totaldot_image_69.png,229.51947275062946,229.77743095864233,,,,,1,1,2024-10-17_16h38.27.539,visual,2024.1.5,None,
2_con_singledot,0.25,2,12,15,231,1,,,,2_con_singledot_image_26.png,229.88565987566642,230.144244041647,,,,,1,1,2024-10-17_16h38.27.539,visual,2024.1.5,None,
4_con_totaldot,0.25,4,12,16,232,9,,,,4_con_totaldot_image_36.png,230.2531097916343,230.51067875064135,,,,,1,1,2024-10-17_16h38.27.539,visual,2024.1.5,None,
2_con_circum,0.25,2,12,17,233,13,,,,2_con_circum_image_59.png,230.61928795862866,230.87683333363773,1.wav,230.9683388749836,2.mp4,230.9683388749836,1,1,2024-10-17_16h38.27.539,visual,2024.1.5,None,
5_con_circum,0.25,5,13,0,234,16,,,,5_con_circum_image_50.png,232.83358762566158,233.08367495861992,,,,,1,1,2024-10-17_16h38.27.539,visual,2024.1.5,None,
3_con_totaldot,0.25,3,13,1,235,8,,,,3_con_totaldot_image_35.png,233.19432925063109,233.4442929586551,,,,,1,1,2024-10-17_16h38.27.539,visual,2024.1.5,None,
3_con_circum,0.25,3,13,2,236,14,,,,3_con_circum_image_39.png,233.55123566664213,233.8012299586592,,,,,1,1,2024-10-17_16h38.27.539,visual,2024.1.5,None,
5_con_singledot,0.25,5,13,3,237,4,,,,5_con_singledot_image_16.png,233.91095600064534,234.16032454162294,,,,,1,1,2024-10-17_16h38.27.539,visual,2024.1.5,None,
3_con_singledot,0.25,3,13,4,238,2,,,,3_con_singledot_image_57.png,234.26755245865013,234.51963891665608,,,,,1,1,2024-10-17_16h38.27.539,visual,2024.1.5,None,
2_con_singledot,0.25,2,13,5,239,1,,,,2_con_singledot_image_29.png,234.62774083364445,234.87779812567558,,,,,1,1,2024-10-17_16h38.27.539,visual,2024.1.5,None,
1_con_singledot,0.25,1,13,6,240,0,,,,1_con_singledot_image_65.png,234.98464175066135,235.24443254166206,,,,,1,1,2024-10-17_16h38.27.539,visual,2024.1.5,None,
6_con_totaldot,0.25,6,13,7,241,11,,,,6_con_totaldot_image_30.png,235.35273208367096,235.60317791666992,,,,,1,1,2024-10-17_16h38.27.539,visual,2024.1.5,None,
1_con_circum,0.25,1,13,8,242,12,,,,1_con_circum_image_17.png,235.71183341662788,235.96838708362,,,,,1,1,2024-10-17_16h38.27.539,visual,2024.1.5,None,
4_con_circum,0.25,4,13,9,243,15,,,,4_con_circum_image_16.png,236.0776100006459,236.32767462561995,,,,,1,1,2024-10-17_16h38.27.539,visual,2024.1.5,None,
4_con_singledot,0.25,4,13,10,244,3,,,,4_con_singledot_image_61.png,236.43591716667095,236.69419354165828,,,,,1,1,2024-10-17_16h38.27.539,visual,2024.1.5,None,
5_con_totaldot,0.25,5,13,11,245,10,,,,5_con_totaldot_image_40.png,236.80258687565026,237.06172366661875,,,,,1,1,2024-10-17_16h38.27.539,visual,2024.1.5,None,
1_con_totaldot,0.25,1,13,12,246,6,,,,1_con_totaldot_image_9.png,237.17006800064507,237.42765808361972,,,,,1,1,2024-10-17_16h38.27.539,visual,2024.1.5,None,
4_con_totaldot,0.25,4,13,13,247,9,,,,4_con_totaldot_image_50.png,237.53652862566912,237.79482395865878,,,,,1,1,2024-10-17_16h38.27.539,visual,2024.1.5,None,
6_con_circum,0.25,6,13,14,248,17,,,,6_con_circum_image_49.png,237.9031830836592,238.16096979164675,,,,,1,1,2024-10-17_16h38.27.539,visual,2024.1.5,None,
2_con_circum,0.25,2,13,15,249,13,,,,2_con_circum_image_22.png,238.2702431256456,238.52807595866423,,,,,1,1,2024-10-17_16h38.27.539,visual,2024.1.5,None,
2_con_totaldot,0.25,2,13,16,250,7,,,,2_con_totaldot_image_23.png,238.6348704586543,238.88692283363005,,,,,1,1,2024-10-17_16h38.27.539,visual,2024.1.5,None,
6_con_singledot,0.25,6,13,17,251,5,,,,6_con_singledot_image_44.png,238.99522400062222,239.24473404162953,1.wav,239.33659054199234,12.mp4,239.33659054199234,1,1,2024-10-17_16h38.27.539,visual,2024.1.5,None,
2_con_circum,0.25,2,14,0,252,13,,,,2_con_circum_image_36.png,241.17977004162194,241.43464425066875,,,,,1,1,2024-10-17_16h38.27.539,visual,2024.1.5,None,
1_con_singledot,0.25,1,14,1,253,0,,,,1_con_singledot_image_49.png,241.54441762566955,241.79440062563324,,,,,1,1,2024-10-17_16h38.27.539,visual,2024.1.5,None,
1_con_circum,0.25,1,14,2,254,12,,,,1_con_circum_image_13.png,241.9012067086568,242.1510705006697,,,,,1,1,2024-10-17_16h38.27.539,visual,2024.1.5,None,
4_con_totaldot,0.25,4,14,3,255,9,,,,4_con_totaldot_image_20.png,242.2615237086701,242.51117529167485,,,,,1,1,2024-10-17_16h38.27.539,visual,2024.1.5,None,
6_con_circum,0.25,6,14,4,256,17,,,,6_con_circum_image_46.png,242.61996541663927,242.87786570866982,,,,,1,1,2024-10-17_16h38.27.539,visual,2024.1.5,None,
1_con_totaldot,0.25,1,14,5,257,6,,,,1_con_totaldot_image_1.png,242.9845642916315,243.23409437563194,,,,,1,1,2024-10-17_16h38.27.539,visual,2024.1.5,None,
3_con_totaldot,0.25,3,14,6,258,8,,,,3_con_totaldot_image_64.png,243.34464862567063,243.594572083621,,,,,1,1,2024-10-17_16h38.27.539,visual,2024.1.5,None,
5_con_circum,0.25,5,14,7,259,16,,,,5_con_circum_image_11.png,243.703216083666,243.96102495864423,,,,,1,1,2024-10-17_16h38.27.539,visual,2024.1.5,None,
5_con_singledot,0.25,5,14,8,260,4,,,,5_con_singledot_image_51.png,244.0678137086487,244.3173047916537,,,,,1,1,2024-10-17_16h38.27.539,visual,2024.1.5,None,
4_con_singledot,0.25,4,14,9,261,3,,,,4_con_singledot_image_32.png,244.42781641662975,244.6784135416422,,,,,1,1,2024-10-17_16h38.27.539,visual,2024.1.5,None,
2_con_totaldot,0.25,2,14,10,262,7,,,,2_con_totaldot_image_14.png,244.7867755416354,245.04448166664613,,,,,1,1,2024-10-17_16h38.27.539,visual,2024.1.5,None,
4_con_circum,0.25,4,14,11,263,15,,,,4_con_circum_image_59.png,245.15273754167526,245.41126970865687,,,,,1,1,2024-10-17_16h38.27.539,visual,2024.1.5,None,
6_con_singledot,0.25,6,14,12,264,5,,,,6_con_singledot_image_63.png,245.51970245866494,245.77719495864974,,,,,1,1,2024-10-17_16h38.27.539,visual,2024.1.5,None,
6_con_totaldot,0.25,6,14,13,265,11,,,,6_con_totaldot_image_51.png,245.88512570861883,246.1356600416514,,,,,1,1,2024-10-17_16h38.27.539,visual,2024.1.5,None,
5_con_totaldot,0.25,5,14,14,266,10,,,,5_con_totaldot_image_11.png,246.24466720866428,246.49444075063028,,,,,1,1,2024-10-17_16h38.27.539,visual,2024.1.5,None,
3_con_singledot,0.25,3,14,15,267,2,,,,3_con_singledot_image_35.png,246.60133950065745,246.85210295865934,,,,,1,1,2024-10-17_16h38.27.539,visual,2024.1.5,None,
2_con_singledot,0.25,2,14,16,268,1,,,,2_con_singledot_image_45.png,246.96047683365566,247.21114462562062,,,,,1,1,2024-10-17_16h38.27.539,visual,2024.1.5,None,
3_con_circum,0.25,3,14,17,269,14,,,,3_con_circum_image_64.png,247.3179145006269,247.56809587567503,1.wav,247.6613434169558,7.mp4,247.6613434169558,1,1,2024-10-17_16h38.27.539,visual,2024.1.5,None,
3_con_circum,0.25,3,15,0,270,14,,,,3_con_circum_image_54.png,249.4936588336287,249.74461770867154,,,,,1,1,2024-10-17_16h38.27.539,visual,2024.1.5,None,
2_con_singledot,0.25,2,15,1,271,1,,,,2_con_singledot_image_50.png,249.85148975063737,250.10098220862372,,,,,1,1,2024-10-17_16h38.27.539,visual,2024.1.5,None,
1_con_totaldot,0.25,1,15,2,272,6,,,,1_con_totaldot_image_37.png,250.21160333361865,250.46172716666868,,,,,1,1,2024-10-17_16h38.27.539,visual,2024.1.5,None,
5_con_totaldot,0.25,5,15,3,273,10,,,,5_con_totaldot_image_27.png,250.57000120865803,250.8278786666381,,,,,1,1,2024-10-17_16h38.27.539,visual,2024.1.5,None,
2_con_totaldot,0.25,2,15,4,274,7,,,,2_con_totaldot_image_28.png,250.9345417086423,251.18520704162464,,,,,1,1,2024-10-17_16h38.27.539,visual,2024.1.5,None,
4_con_circum,0.25,4,15,5,275,15,,,,4_con_circum_image_9.png,251.29437541667528,251.54465020867454,,,,,1,1,2024-10-17_16h38.27.539,visual,2024.1.5,None,
3_con_singledot,0.25,3,15,6,276,2,,,,3_con_singledot_image_4.png,251.65188304162973,251.90194979164906,,,,,1,1,2024-10-17_16h38.27.539,visual,2024.1.5,None,
1_con_singledot,0.25,1,15,7,277,0,,,,1_con_singledot_image_67.png,252.01030950064694,252.26165487565257,,,,,1,1,2024-10-17_16h38.27.539,visual,2024.1.5,None,
3_con_totaldot,0.25,3,15,8,278,8,,,,3_con_totaldot_image_15.png,252.3701942086608,252.6279917086397,,,,,1,1,2024-10-17_16h38.27.539,visual,2024.1.5,None,
2_con_circum,0.25,2,15,9,279,13,,,,2_con_circum_image_47.png,252.7363994166643,252.99480375065858,,,,,1,1,2024-10-17_16h38.27.539,visual,2024.1.5,None,
6_con_circum,0.25,6,15,10,280,17,,,,6_con_circum_image_23.png,253.1039515836436,253.3616041256503,,,,,1,1,2024-10-17_16h38.27.539,visual,2024.1.5,None,
6_con_totaldot,0.25,6,15,11,281,11,,,,6_con_totaldot_image_12.png,253.46826850066816,253.7283621256395,,,,,1,1,2024-10-17_16h38.27.539,visual,2024.1.5,None,
6_con_singledot,0.25,6,15,12,282,5,,,,6_con_singledot_image_8.png,253.83670566664466,254.0945759586214,,,,,1,1,2024-10-17_16h38.27.539,visual,2024.1.5,None,
4_con_singledot,0.25,4,15,13,283,3,,,,4_con_singledot_image_5.png,254.20324550065368,254.46076241665676,,,,,1,1,2024-10-17_16h38.27.539,visual,2024.1.5,None,
5_con_circum,0.25,5,15,14,284,16,,,,5_con_circum_image_49.png,254.56910133364534,254.82797187567147,,,,,1,1,2024-10-17_16h38.27.539,visual,2024.1.5,None,
5_con_singledot,0.25,5,15,15,285,4,,,,5_con_singledot_image_53.png,254.936728208644,255.19459587562986,,,,,1,1,2024-10-17_16h38.27.539,visual,2024.1.5,None,
1_con_circum,0.25,1,15,16,286,12,,,,1_con_circum_image_35.png,255.30323312562348,255.5529277086646,,,,,1,1,2024-10-17_16h38.27.539,visual,2024.1.5,None,
4_con_totaldot,0.25,4,15,17,287,9,,,,4_con_totaldot_image_62.png,255.6613407086387,255.9114952086277,3.wav,256.0032402499928,4.mp4,256.0032402499928,1,1,2024-10-17_16h38.27.539,visual,2024.1.5,None,
1_con_singledot,0.25,1,16,0,288,0,,,,1_con_singledot_image_62.png,257.8432692506622,258.09409008367606,,,,,1,1,2024-10-17_16h38.27.539,visual,2024.1.5,None,
2_con_singledot,0.25,2,16,1,289,1,,,,2_con_singledot_image_40.png,258.20097816662553,258.45126620866745,,,,,1,1,2024-10-17_16h38.27.539,visual,2024.1.5,None,
4_con_singledot,0.25,4,16,2,290,3,,,,4_con_singledot_image_29.png,258.56061104163916,258.81121516664666,,,,,1,1,2024-10-17_16h38.27.539,visual,2024.1.5,None,
3_con_singledot,0.25,3,16,3,291,2,,,,3_con_singledot_image_59.png,258.91807466666603,259.1680393336612,,,,,1,1,2024-10-17_16h38.27.539,visual,2024.1.5,None,
6_con_circum,0.25,6,16,4,292,17,,,,6_con_circum_image_18.png,259.27860908364335,259.52773366665156,,,,,1,1,2024-10-17_16h38.27.539,visual,2024.1.5,None,
1_con_totaldot,0.25,1,16,5,293,6,,,,1_con_totaldot_image_60.png,259.6355800006694,259.88487595867286,,,,,1,1,2024-10-17_16h38.27.539,visual,2024.1.5,None,
5_con_totaldot,0.25,5,16,6,294,10,,,,5_con_totaldot_image_17.png,259.9939792086642,260.24416366662285,,,,,1,1,2024-10-17_16h38.27.539,visual,2024.1.5,None,
5_con_circum,0.25,5,16,7,295,16,,,,5_con_circum_image_55.png,260.3522492916362,260.601633791641,,,,,1,1,2024-10-17_16h38.27.539,visual,2024.1.5,None,
2_con_totaldot,0.25,2,16,8,296,7,,,,2_con_totaldot_image_42.png,260.7114138336309,260.961534000646,,,,,1,1,2024-10-17_16h38.27.539,visual,2024.1.5,None,
6_con_totaldot,0.25,6,16,9,297,11,,,,6_con_totaldot_image_10.png,261.07025979165144,261.32795187563556,,,,,1,1,2024-10-17_16h38.27.539,visual,2024.1.5,None,
4_con_totaldot,0.25,4,16,10,298,9,,,,4_con_totaldot_image_13.png,261.43676433365715,261.69479529164187,,,,,1,1,2024-10-17_16h38.27.539,visual,2024.1.5,None,
5_con_singledot,0.25,5,16,11,299,4,,,,5_con_singledot_image_69.png,261.80353279164217,262.06069825066174,,,,,1,1,2024-10-17_16h38.27.539,visual,2024.1.5,None,
6_con_singledot,0.25,6,16,12,300,5,,,,6_con_singledot_image_2.png,262.16886675063677,262.41795208363715,,,,,1,1,2024-10-17_16h38.27.539,visual,2024.1.5,None,
3_con_totaldot,0.25,3,16,13,301,8,,,,3_con_totaldot_image_66.png,262.52810387566376,262.77844920865414,,,,,1,1,2024-10-17_16h38.27.539,visual,2024.1.5,None,
2_con_circum,0.25,2,16,14,302,13,,,,2_con_circum_image_35.png,262.8852896256411,263.13703416666635,,,,,1,1,2024-10-17_16h38.27.539,visual,2024.1.5,None,
3_con_circum,0.25,3,16,15,303,14,,,,3_con_circum_image_52.png,263.24592566667513,263.49515320867454,,,,,1,1,2024-10-17_16h38.27.539,visual,2024.1.5,None,
4_con_circum,0.25,4,16,16,304,15,,,,4_con_circum_image_52.png,263.6019411256692,263.85185541666965,,,,,1,1,2024-10-17_16h38.27.539,visual,2024.1.5,None,
1_con_circum,0.25,1,16,17,305,12,,,,1_con_circum_image_6.png,263.9607015006749,264.21173262567413,5.wav,264.3035656249849,4.mp4,264.3035656249849,1,1,2024-10-17_16h38.27.539,visual,2024.1.5,None,
6_con_totaldot,0.25,6,17,0,306,11,,,,6_con_totaldot_image_36.png,266.1545695416435,266.411962000657,,,,,1,1,2024-10-17_16h38.27.539,visual,2024.1.5,None,
1_con_circum,0.25,1,17,1,307,12,,,,1_con_circum_image_29.png,266.5207052506429,266.7775301666736,,,,,1,1,2024-10-17_16h38.27.539,visual,2024.1.5,None,
3_con_singledot,0.25,3,17,2,308,2,,,,3_con_singledot_image_11.png,266.88543633362667,267.1348444166399,,,,,1,1,2024-10-17_16h38.27.539,visual,2024.1.5,None,
5_con_totaldot,0.25,5,17,3,309,10,,,,5_con_totaldot_image_14.png,267.24494070865137,267.495359958619,,,,,1,1,2024-10-17_16h38.27.539,visual,2024.1.5,None,
3_con_totaldot,0.25,3,17,4,310,8,,,,3_con_totaldot_image_63.png,267.6036567916434,267.8618978336492,,,,,1,1,2024-10-17_16h38.27.539,visual,2024.1.5,None,
4_con_singledot,0.25,4,17,5,311,3,,,,4_con_singledot_image_31.png,267.9705306666709,268.2282459166638,,,,,1,1,2024-10-17_16h38.27.539,visual,2024.1.5,None,
1_con_singledot,0.25,1,17,6,312,0,,,,1_con_singledot_image_36.png,268.3355869586502,268.5953586666185,,,,,1,1,2024-10-17_16h38.27.539,visual,2024.1.5,None,
6_con_singledot,0.25,6,17,7,313,5,,,,6_con_singledot_image_46.png,268.7035062506601,268.96078879165384,,,,,1,1,2024-10-17_16h38.27.539,visual,2024.1.5,None,
1_con_totaldot,0.25,1,17,8,314,6,,,,1_con_totaldot_image_39.png,269.06746162564184,269.31747425062736,,,,,1,1,2024-10-17_16h38.27.539,visual,2024.1.5,None,
4_con_circum,0.25,4,17,9,315,15,,,,4_con_circum_image_33.png,269.4287696666705,269.678244083658,,,,,1,1,2024-10-17_16h38.27.539,visual,2024.1.5,None,
2_con_totaldot,0.25,2,17,10,316,7,,,,2_con_totaldot_image_22.png,269.78696375063544,270.0450132086446,,,,,1,1,2024-10-17_16h38.27.539,visual,2024.1.5,None,
5_con_singledot,0.25,5,17,11,317,4,,,,5_con_singledot_image_39.png,270.1537347916436,270.4116033756329,,,,,1,1,2024-10-17_16h38.27.539,visual,2024.1.5,None,
3_con_circum,0.25,3,17,12,318,14,,,,3_con_circum_image_7.png,270.5183695416471,270.7702346666522,,,,,1,1,2024-10-17_16h38.27.539,visual,2024.1.5,None,
5_con_circum,0.25,5,17,13,319,16,,,,5_con_circum_image_33.png,270.87904191665973,271.12878820865103,,,,,1,1,2024-10-17_16h38.27.539,visual,2024.1.5,None,
6_con_circum,0.25,6,17,14,320,17,,,,6_con_circum_image_15.png,271.23731633365776,271.4950768756719,,,,,1,1,2024-10-17_16h38.27.539,visual,2024.1.5,None,
4_con_totaldot,0.25,4,17,15,321,9,,,,4_con_totaldot_image_66.png,271.60359637564204,271.86174704163955,,,,,1,1,2024-10-17_16h38.27.539,visual,2024.1.5,None,
2_con_circum,0.25,2,17,16,322,13,,,,2_con_circum_image_31.png,271.9684778336358,272.2184957916654,,,,,1,1,2024-10-17_16h38.27.539,visual,2024.1.5,None,
2_con_singledot,0.25,2,17,17,323,1,,,,2_con_singledot_image_3.png,272.32822225065127,272.577730916619,2.wav,272.67040658398764,14.mp4,272.67040658398764,1,1,2024-10-17_16h38.27.539,visual,2024.1.5,None,
2_con_circum,0.25,2,18,0,324,13,,,,2_con_circum_image_14.png,274.51190870862143,274.76191437564944,,,,,1,1,2024-10-17_16h38.27.539,visual,2024.1.5,None,
5_con_totaldot,0.25,5,18,1,325,10,,,,5_con_totaldot_image_68.png,274.8689651256699,275.11847291666004,,,,,1,1,2024-10-17_16h38.27.539,visual,2024.1.5,None,
6_con_circum,0.25,6,18,2,326,17,,,,6_con_circum_image_31.png,275.228044208632,275.47824120865357,,,,,1,1,2024-10-17_16h38.27.539,visual,2024.1.5,None,
2_con_singledot,0.25,2,18,3,327,1,,,,2_con_singledot_image_25.png,275.5853011666603,275.83525266667516,,,,,1,1,2024-10-17_16h38.27.539,visual,2024.1.5,None,
4_con_totaldot,0.25,4,18,4,328,9,,,,4_con_totaldot_image_28.png,275.9448032506315,276.1948399166615,,,,,1,1,2024-10-17_16h38.27.539,visual,2024.1.5,None,
6_con_totaldot,0.25,6,18,5,329,11,,,,6_con_totaldot_image_64.png,276.3033867916364,276.5618416256659,,,,,1,1,2024-10-17_16h38.27.539,visual,2024.1.5,None,
5_con_circum,0.25,5,18,6,330,16,,,,5_con_circum_image_39.png,276.670281625671,276.92845458363104,,,,,1,1,2024-10-17_16h38.27.539,visual,2024.1.5,None,
1_con_circum,0.25,1,18,7,331,12,,,,1_con_circum_image_28.png,277.03514516664825,277.28554733365695,,,,,1,1,2024-10-17_16h38.27.539,visual,2024.1.5,None,
1_con_singledot,0.25,1,18,8,332,0,,,,1_con_singledot_image_18.png,277.39526041663873,277.64427420864035,,,,,1,1,2024-10-17_16h38.27.539,visual,2024.1.5,None,
1_con_totaldot,0.25,1,18,9,333,6,,,,1_con_totaldot_image_51.png,277.7510964166412,278.0014939586438,,,,,1,1,2024-10-17_16h38.27.539,visual,2024.1.5,None,
4_con_circum,0.25,4,18,10,334,15,,,,4_con_circum_image_56.png,278.11196162566,278.3676444586638,,,,,1,1,2024-10-17_16h38.27.539,visual,2024.1.5,None,
3_con_circum,0.25,3,18,11,335,14,,,,3_con_circum_image_28.png,278.4787067506385,278.72846070863693,,,,,1,1,2024-10-17_16h38.27.539,visual,2024.1.5,None,
3_con_singledot,0.25,3,18,12,336,2,,,,3_con_singledot_image_30.png,278.835306458668,279.0851700006208,,,,,1,1,2024-10-17_16h38.27.539,visual,2024.1.5,None,
3_con_totaldot,0.25,3,18,13,337,8,,,,3_con_totaldot_image_18.png,279.1953806666696,279.4447551256201,,,,,1,1,2024-10-17_16h38.27.539,visual,2024.1.5,None,
2_con_totaldot,0.25,2,18,14,338,7,,,,2_con_totaldot_image_52.png,279.553527500624,279.81196695863423,,,,,1,1,2024-10-17_16h38.27.539,visual,2024.1.5,None,
5_con_singledot,0.25,5,18,15,339,4,,,,5_con_singledot_image_36.png,279.9188605836515,280.16798787564426,,,,,1,1,2024-10-17_16h38.27.539,visual,2024.1.5,None,
6_con_singledot,0.25,6,18,16,340,5,,,,6_con_singledot_image_50.png,280.2786510836721,280.5281306256695,,,,,1,1,2024-10-17_16h38.27.539,visual,2024.1.5,None,
4_con_singledot,0.25,4,18,17,341,3,,,,4_con_singledot_image_45.png,280.6348886666509,280.88525562564996,1.wav,280.97864854196087,11.mp4,280.97864854196087,1,1,2024-10-17_16h38.27.539,visual,2024.1.5,None,
4_con_singledot,0.25,4,19,0,342,3,,,,4_con_singledot_image_22.png,282.83659200063363,283.09446250065616,,,,,1,1,2024-10-17_16h38.27.539,visual,2024.1.5,None,
2_con_circum,0.25,2,19,1,343,13,,,,2_con_circum_image_19.png,283.2024318336315,283.46228579164404,,,,,1,1,2024-10-17_16h38.27.539,visual,2024.1.5,None,
1_con_circum,0.25,1,19,2,344,12,,,,1_con_circum_image_34.png,283.56915358363574,283.81971150066624,,,,,1,1,2024-10-17_16h38.27.539,visual,2024.1.5,None,
2_con_singledot,0.25,2,19,3,345,1,,,,2_con_singledot_image_62.png,283.92861979166435,284.17893200065396,,,,,1,1,2024-10-17_16h38.27.539,visual,2024.1.5,None,
4_con_totaldot,0.25,4,19,4,346,9,,,,4_con_totaldot_image_68.png,284.2876645006744,284.5372785416587,,,,,1,1,2024-10-17_16h38.27.539,visual,2024.1.5,None,
2_con_totaldot,0.25,2,19,5,347,7,,,,2_con_totaldot_image_16.png,284.6455671666462,284.89612283365955,,,,,1,1,2024-10-17_16h38.27.539,visual,2024.1.5,None,
3_con_totaldot,0.25,3,19,6,348,8,,,,3_con_totaldot_image_6.png,285.0042732916462,285.26191900065555,,,,,1,1,2024-10-17_16h38.27.539,visual,2024.1.5,None,
3_con_singledot,0.25,3,19,7,349,2,,,,3_con_singledot_image_6.png,285.36861583366215,285.61883620865797,,,,,1,1,2024-10-17_16h38.27.539,visual,2024.1.5,None,
1_con_totaldot,0.25,1,19,8,350,6,,,,1_con_totaldot_image_12.png,285.72881866662453,285.9785431256207,,,,,1,1,2024-10-17_16h38.27.539,visual,2024.1.5,None,
5_con_singledot,0.25,5,19,9,351,4,,,,5_con_singledot_image_52.png,286.0854327086398,286.33524254162717,,,,,1,1,2024-10-17_16h38.27.539,visual,2024.1.5,None,
1_con_singledot,0.25,1,19,10,352,0,,,,1_con_singledot_image_43.png,286.44445933363556,286.6954502086194,,,,,1,1,2024-10-17_16h38.27.539,visual,2024.1.5,None,
5_con_circum,0.25,5,19,11,353,16,,,,5_con_circum_image_52.png,286.8021811666239,287.05368987564384,,,,,1,1,2024-10-17_16h38.27.539,visual,2024.1.5,None,
6_con_circum,0.25,6,19,12,354,17,,,,6_con_circum_image_12.png,287.16199454167315,287.4125578336573,,,,,1,1,2024-10-17_16h38.27.539,visual,2024.1.5,None,
6_con_singledot,0.25,6,19,13,355,5,,,,6_con_singledot_image_38.png,287.52370108364073,287.778570708648,,,,,1,1,2024-10-17_16h38.27.539,visual,2024.1.5,None,
3_con_circum,0.25,3,19,14,356,14,,,,3_con_circum_image_18.png,287.8871360416214,288.13727891666736,,,,,1,1,2024-10-17_16h38.27.539,visual,2024.1.5,None,
6_con_totaldot,0.25,6,19,15,357,11,,,,6_con_totaldot_image_4.png,288.2454135006682,288.49528191663944,,,,,1,1,2024-10-17_16h38.27.539,visual,2024.1.5,None,
4_con_circum,0.25,4,19,16,358,15,,,,4_con_circum_image_41.png,288.60203191663993,288.8523927086537,,,,,1,1,2024-10-17_16h38.27.539,visual,2024.1.5,None,
5_con_totaldot,0.25,5,19,17,359,10,,,,5_con_totaldot_image_23.png,288.9620936666305,289.21266762563414,5.wav,289.3043549589929,5.mp4,289.3043549589929,1,1,2024-10-17_16h38.27.539,visual,2024.1.5,None,
5_con_singledot,0.25,5,20,0,360,4,,,,5_con_singledot_image_67.png,291.14886641666914,291.40357354167304,,,,,1,1,2024-10-17_16h38.27.539,visual,2024.1.5,None,
5_con_totaldot,0.25,5,20,1,361,10,,,,5_con_totaldot_image_52.png,291.5121387086382,291.76156712562465,,,,,1,1,2024-10-17_16h38.27.539,visual,2024.1.5,None,
1_con_circum,0.25,1,20,2,362,12,,,,1_con_circum_image_58.png,291.86986566663643,292.1189320006563,,,,,1,1,2024-10-17_16h38.27.539,visual,2024.1.5,None,
6_con_totaldot,0.25,6,20,3,363,11,,,,6_con_totaldot_image_39.png,292.2286824586607,292.47896329162563,,,,,1,1,2024-10-17_16h38.27.539,visual,2024.1.5,None,
1_con_singledot,0.25,1,20,4,364,0,,,,1_con_singledot_image_22.png,292.58763266666017,292.8452742086413,,,,,1,1,2024-10-17_16h38.27.539,visual,2024.1.5,None,
1_con_totaldot,0.25,1,20,5,365,6,,,,1_con_totaldot_image_47.png,292.95352037562213,293.21125575062274,,,,,1,1,2024-10-17_16h38.27.539,visual,2024.1.5,None,
5_con_circum,0.25,5,20,6,366,16,,,,5_con_circum_image_22.png,293.31802733367465,293.5685162086195,,,,,1,1,2024-10-17_16h38.27.539,visual,2024.1.5,None,
4_con_singledot,0.25,4,20,7,367,3,,,,4_con_singledot_image_51.png,293.67876954164046,293.92856929166396,,,,,1,1,2024-10-17_16h38.27.539,visual,2024.1.5,None,
4_con_circum,0.25,4,20,8,368,15,,,,4_con_circum_image_31.png,294.0359189586287,294.2871022916554,,,,,1,1,2024-10-17_16h38.27.539,visual,2024.1.5,None,
3_con_circum,0.25,3,20,9,369,14,,,,3_con_circum_image_63.png,294.3952730836735,294.64532916667326,,,,,1,1,2024-10-17_16h38.27.539,visual,2024.1.5,None,
2_con_totaldot,0.25,2,20,10,370,7,,,,2_con_totaldot_image_70.png,294.7520771256221,295.0013165416351,,,,,1,1,2024-10-17_16h38.27.539,visual,2024.1.5,None,
2_con_circum,0.25,2,20,11,371,13,,,,2_con_circum_image_53.png,295.11217529166413,295.3621282916322,,,,,1,1,2024-10-17_16h38.27.539,visual,2024.1.5,None,
4_con_totaldot,0.25,4,20,12,372,9,,,,4_con_totaldot_image_18.png,295.4691002506569,295.71875854162886,,,,,1,1,2024-10-17_16h38.27.539,visual,2024.1.5,None,
3_con_singledot,0.25,3,20,13,373,2,,,,3_con_singledot_image_40.png,295.8278955836703,296.0789647506356,,,,,1,1,2024-10-17_16h38.27.539,visual,2024.1.5,None,
2_con_singledot,0.25,2,20,14,374,1,,,,2_con_singledot_image_58.png,296.1879959166671,296.43734550063186,,,,,1,1,2024-10-17_16h38.27.539,visual,2024.1.5,None,
3_con_totaldot,0.25,3,20,15,375,8,,,,3_con_totaldot_image_27.png,296.545596500653,296.7954318756276,,,,,1,1,2024-10-17_16h38.27.539,visual,2024.1.5,None,
6_con_circum,0.25,6,20,16,376,17,,,,6_con_circum_image_17.png,296.90213483365176,297.15252279164656,,,,,1,1,2024-10-17_16h38.27.539,visual,2024.1.5,None,
6_con_singledot,0.25,6,20,17,377,5,,,,6_con_singledot_image_19.png,297.26246937564963,297.5124707916441,5.wav,297.60434600000735,6.mp4,297.60434600000735,1,1,2024-10-17_16h38.27.539,visual,2024.1.5,None,
6_con_totaldot,0.25,6,21,0,378,11,,,,6_con_totaldot_image_68.png,299.46096808365934,299.7125585416254,,,,,1,1,2024-10-17_16h38.27.539,visual,2024.1.5,None,
1_con_circum,0.25,1,21,1,379,12,,,,1_con_circum_image_19.png,299.81946600062463,300.0690096256478,,,,,1,1,2024-10-17_16h38.27.539,visual,2024.1.5,None,
3_con_circum,0.25,3,21,2,380,14,,,,3_con_circum_image_46.png,300.17808754162786,300.4281841666709,,,,,1,1,2024-10-17_16h38.27.539,visual,2024.1.5,None,
2_con_circum,0.25,2,21,3,381,13,,,,2_con_circum_image_50.png,300.53625225063104,300.7872852506737,,,,,1,1,2024-10-17_16h38.27.539,visual,2024.1.5,None,
4_con_circum,0.25,4,21,4,382,15,,,,4_con_circum_image_11.png,300.89550104163743,301.14557020867164,,,,,1,1,2024-10-17_16h38.27.539,visual,2024.1.5,None,
6_con_circum,0.25,6,21,5,383,17,,,,6_con_circum_image_58.png,301.2524163756442,301.50229179166877,,,,,1,1,2024-10-17_16h38.27.539,visual,2024.1.5,None,
6_con_singledot,0.25,6,21,6,384,5,,,,6_con_singledot_image_15.png,301.6124410006722,301.86871662567523,,,,,1,1,2024-10-17_16h38.27.539,visual,2024.1.5,None,
3_con_singledot,0.25,3,21,7,385,2,,,,3_con_singledot_image_45.png,301.9793000006738,302.22847425064924,,,,,1,1,2024-10-17_16h38.27.539,visual,2024.1.5,None,
5_con_circum,0.25,5,21,8,386,16,,,,5_con_circum_image_26.png,302.33536575062124,302.5848955416625,,,,,1,1,2024-10-17_16h38.27.539,visual,2024.1.5,None,
5_con_singledot,0.25,5,21,9,387,4,,,,5_con_singledot_image_44.png,302.6960028336306,302.94551708363383,,,,,1,1,2024-10-17_16h38.27.539,visual,2024.1.5,None,
4_con_singledot,0.25,4,21,10,388,3,,,,4_con_singledot_image_13.png,303.0542482506406,303.3123420416416,,,,,1,1,2024-10-17_16h38.27.539,visual,2024.1.5,None,
2_con_totaldot,0.25,2,21,11,389,7,,,,2_con_totaldot_image_19.png,303.41901404163025,303.66910687566656,,,,,1,1,2024-10-17_16h38.27.539,visual,2024.1.5,None,
5_con_totaldot,0.25,5,21,12,390,10,,,,5_con_totaldot_image_24.png,303.778990333636,304.03487383365086,,,,,1,1,2024-10-17_16h38.27.539,visual,2024.1.5,None,
3_con_totaldot,0.25,3,21,13,391,8,,,,3_con_totaldot_image_41.png,304.1457677086272,304.395835708656,,,,,1,1,2024-10-17_16h38.27.539,visual,2024.1.5,None,
1_con_totaldot,0.25,1,21,14,392,6,,,,1_con_totaldot_image_6.png,304.50265758365083,304.75227770867446,,,,,1,1,2024-10-17_16h38.27.539,visual,2024.1.5,None,
4_con_totaldot,0.25,4,21,15,393,9,,,,4_con_totaldot_image_63.png,304.86232291665317,305.1126160006427,,,,,1,1,2024-10-17_16h38.27.539,visual,2024.1.5,None,
1_con_singledot,0.25,1,21,16,394,0,,,,1_con_singledot_image_23.png,305.22129354162996,305.4708831666542,,,,,1,1,2024-10-17_16h38.27.539,visual,2024.1.5,None,
2_con_singledot,0.25,2,21,17,395,1,,,,2_con_singledot_image_56.png,305.5792322916367,305.82861233363315,1.wav,305.91893091698876,4.mp4,305.91893091698876,1,1,2024-10-17_16h38.27.539,visual,2024.1.5,None,
5_con_circum,0.25,5,22,0,396,16,,,,5_con_circum_image_38.png,307.76727662563013,308.0196818336301,,,,,1,1,2024-10-17_16h38.27.539,visual,2024.1.5,None,
6_con_circum,0.25,6,22,1,397,17,,,,6_con_circum_image_61.png,308.12831283363437,308.37898854166656,,,,,1,1,2024-10-17_16h38.27.539,visual,2024.1.5,None,
2_con_circum,0.25,2,22,2,398,13,,,,2_con_circum_image_26.png,308.4859019586273,308.7356658756655,,,,,1,1,2024-10-17_16h38.27.539,visual,2024.1.5,None,
2_con_singledot,0.25,2,22,3,399,1,,,,2_con_singledot_image_34.png,308.8456778336239,309.0958614586309,,,,,1,1,2024-10-17_16h38.27.539,visual,2024.1.5,None,
6_con_totaldot,0.25,6,22,4,400,11,,,,6_con_totaldot_image_7.png,309.2042245836618,309.462426416638,,,,,1,1,2024-10-17_16h38.27.539,visual,2024.1.5,None,
3_con_totaldot,0.25,3,22,5,401,8,,,,3_con_totaldot_image_61.png,309.571277875655,309.8291725416241,,,,,1,1,2024-10-17_16h38.27.539,visual,2024.1.5,None,
5_con_singledot,0.25,5,22,6,402,4,,,,5_con_singledot_image_40.png,309.93591445867594,310.1856921256442,,,,,1,1,2024-10-17_16h38.27.539,visual,2024.1.5,None,
3_con_singledot,0.25,3,22,7,403,2,,,,3_con_singledot_image_60.png,310.29621720863895,310.54619979166114,,,,,1,1,2024-10-17_16h38.27.539,visual,2024.1.5,None,
2_con_totaldot,0.25,2,22,8,404,7,,,,2_con_totaldot_image_21.png,310.65448525067575,310.91245087562515,,,,,1,1,2024-10-17_16h38.27.539,visual,2024.1.5,None,
4_con_circum,0.25,4,22,9,405,15,,,,4_con_circum_image_2.png,311.02114820867234,311.27038166666557,,,,,1,1,2024-10-17_16h38.27.539,visual,2024.1.5,None,
3_con_circum,0.25,3,22,10,406,14,,,,3_con_circum_image_47.png,311.37895054163334,311.629246208646,,,,,1,1,2024-10-17_16h38.27.539,visual,2024.1.5,None,
4_con_singledot,0.25,4,22,11,407,3,,,,4_con_singledot_image_11.png,311.7376268756615,311.99539870862304,,,,,1,1,2024-10-17_16h38.27.539,visual,2024.1.5,None,
1_con_totaldot,0.25,1,22,12,408,6,,,,1_con_totaldot_image_13.png,312.10252750062307,312.3529038336749,,,,,1,1,2024-10-17_16h38.27.539,visual,2024.1.5,None,
5_con_totaldot,0.25,5,22,13,409,10,,,,5_con_totaldot_image_51.png,312.46238662567146,312.7123989166614,,,,,1,1,2024-10-17_16h38.27.539,visual,2024.1.5,None,
6_con_singledot,0.25,6,22,14,410,5,,,,6_con_singledot_image_70.png,312.8191411666611,313.07079716667454,,,,,1,1,2024-10-17_16h38.27.539,visual,2024.1.5,None,
1_con_circum,0.25,1,22,15,411,12,,,,1_con_circum_image_40.png,313.17936462562454,313.4292182506217,,,,,1,1,2024-10-17_16h38.27.539,visual,2024.1.5,None,
4_con_totaldot,0.25,4,22,16,412,9,,,,4_con_totaldot_image_54.png,313.5379571666398,313.79593425064036,,,,,1,1,2024-10-17_16h38.27.539,visual,2024.1.5,None,
1_con_singledot,0.25,1,22,17,413,0,,,,1_con_singledot_image_50.png,313.90451233365263,314.15451987565416,4.wav,314.2462509169709,2.mp4,314.2462509169709,1,1,2024-10-17_16h38.27.539,visual,2024.1.5,None,
1_con_singledot,0.25,1,23,0,414,0,,,,1_con_singledot_image_51.png,316.10037037562967,316.35287520866063,,,,,1,1,2024-10-17_16h38.27.539,visual,2024.1.5,None,
4_con_singledot,0.25,4,23,1,415,3,,,,4_con_singledot_image_69.png,316.4615990836445,316.7125282086238,,,,,1,1,2024-10-17_16h38.27.539,visual,2024.1.5,None,
6_con_circum,0.25,6,23,2,416,17,,,,6_con_circum_image_65.png,316.8193732506751,317.06931520864987,,,,,1,1,2024-10-17_16h38.27.539,visual,2024.1.5,None,
6_con_totaldot,0.25,6,23,3,417,11,,,,6_con_totaldot_image_18.png,317.17935216662397,317.42940408364325,,,,,1,1,2024-10-17_16h38.27.539,visual,2024.1.5,None,
5_con_circum,0.25,5,23,4,418,16,,,,5_con_circum_image_35.png,317.53618962564894,317.78774175065723,,,,,1,1,2024-10-17_16h38.27.539,visual,2024.1.5,None,
6_con_singledot,0.25,6,23,5,419,5,,,,6_con_singledot_image_16.png,317.8958337506318,318.1462387916438,,,,,1,1,2024-10-17_16h38.27.539,visual,2024.1.5,None,
5_con_totaldot,0.25,5,23,6,420,10,,,,5_con_totaldot_image_59.png,318.2547907916286,318.51228245866173,,,,,1,1,2024-10-17_16h38.27.539,visual,2024.1.5,None,
1_con_circum,0.25,1,23,7,421,12,,,,1_con_circum_image_7.png,318.62061975066706,318.87898829166465,,,,,1,1,2024-10-17_16h38.27.539,visual,2024.1.5,None,
3_con_circum,0.25,3,23,8,422,14,,,,3_con_circum_image_42.png,318.98568387565126,319.23528820864544,,,,,1,1,2024-10-17_16h38.27.539,visual,2024.1.5,None,
2_con_totaldot,0.25,2,23,9,423,7,,,,2_con_totaldot_image_13.png,319.3463153336469,319.6021384586386,,,,,1,1,2024-10-17_16h38.27.539,visual,2024.1.5,None,
3_con_singledot,0.25,3,23,10,424,2,,,,3_con_singledot_image_1.png,319.712504541645,319.96295866667447,,,,,1,1,2024-10-17_16h38.27.539,visual,2024.1.5,None,
1_con_totaldot,0.25,1,23,11,425,6,,,,1_con_totaldot_image_38.png,320.07132508363964,320.32993395865583,,,,,1,1,2024-10-17_16h38.27.539,visual,2024.1.5,None,
2_con_singledot,0.25,2,23,12,426,1,,,,2_con_singledot_image_60.png,320.4383252506649,320.6958205416488,,,,,1,1,2024-10-17_16h38.27.539,visual,2024.1.5,None,
5_con_singledot,0.25,5,23,13,427,4,,,,5_con_singledot_image_42.png,320.80469066664034,321.0627495006231,,,,,1,1,2024-10-17_16h38.27.539,visual,2024.1.5,None,
2_con_circum,0.25,2,23,14,428,13,,,,2_con_circum_image_57.png,321.17134366664493,321.4208550416554,,,,,1,1,2024-10-17_16h38.27.539,visual,2024.1.5,None,
4_con_totaldot,0.25,4,23,15,429,9,,,,4_con_totaldot_image_42.png,321.5294582506448,321.77928045863905,,,,,1,1,2024-10-17_16h38.27.539,visual,2024.1.5,None,
3_con_totaldot,0.25,3,23,16,430,8,,,,3_con_totaldot_image_36.png,321.88601525066576,322.1356695416655,,,,,1,1,2024-10-17_16h38.27.539,visual,2024.1.5,None,
4_con_circum,0.25,4,23,17,431,15,,,,4_con_circum_image_26.png,322.2459954586501,322.49657937564575,1.wav,322.58895091700833,2.mp4,322.58895091700833,1,1,2024-10-17_16h38.27.539,visual,2024.1.5,None,
2_con_circum,0.25,2,24,0,432,13,,,,2_con_circum_image_29.png,324.42159383367203,324.67967908364176,,,,,1,1,2024-10-17_16h38.27.539,visual,2024.1.5,None,
6_con_circum,0.25,6,24,1,433,17,,,,6_con_circum_image_26.png,324.78706583365954,325.0463327916261,,,,,1,1,2024-10-17_16h38.27.539,visual,2024.1.5,None,
4_con_singledot,0.25,4,24,2,434,3,,,,4_con_singledot_image_50.png,325.15519633362226,325.41264754167446,,,,,1,1,2024-10-17_16h38.27.539,visual,2024.1.5,None,
3_con_circum,0.25,3,24,3,435,14,,,,3_con_circum_image_68.png,325.52132912564946,325.7714966666574,,,,,1,1,2024-10-17_16h38.27.539,visual,2024.1.5,None,
3_con_singledot,0.25,3,24,4,436,2,,,,3_con_singledot_image_8.png,325.88003712563466,326.12990458362424,,,,,1,1,2024-10-17_16h38.27.539,visual,2024.1.5,None,
1_con_circum,0.25,1,24,5,437,12,,,,1_con_circum_image_9.png,326.2385784166671,326.4956990416433,,,,,1,1,2024-10-17_16h38.27.539,visual,2024.1.5,None,
5_con_totaldot,0.25,5,24,6,438,10,,,,5_con_totaldot_image_12.png,326.60237291667534,326.8541447916689,,,,,1,1,2024-10-17_16h38.27.539,visual,2024.1.5,None,
6_con_totaldot,0.25,6,24,7,439,11,,,,6_con_totaldot_image_48.png,326.96271362565847,327.21293416666254,,,,,1,1,2024-10-17_16h38.27.539,visual,2024.1.5,None,
5_con_circum,0.25,5,24,8,440,16,,,,5_con_circum_image_12.png,327.3198229166718,327.57126566663305,,,,,1,1,2024-10-17_16h38.27.539,visual,2024.1.5,None,
1_con_singledot,0.25,1,24,9,441,0,,,,1_con_singledot_image_64.png,327.68014120866235,327.92937004164946,,,,,1,1,2024-10-17_16h38.27.539,visual,2024.1.5,None,
2_con_singledot,0.25,2,24,10,442,1,,,,2_con_singledot_image_13.png,328.03607791664933,328.28586150065917,,,,,1,1,2024-10-17_16h38.27.539,visual,2024.1.5,None,
3_con_totaldot,0.25,3,24,11,443,8,,,,3_con_totaldot_image_8.png,328.3962917086591,328.64576687565227,,,,,1,1,2024-10-17_16h38.27.539,visual,2024.1.5,None,
2_con_totaldot,0.25,2,24,12,444,7,,,,2_con_totaldot_image_18.png,328.7526074166216,329.00275025063115,,,,,1,1,2024-10-17_16h38.27.539,visual,2024.1.5,None,
1_con_totaldot,0.25,1,24,13,445,6,,,,1_con_totaldot_image_59.png,329.1136092916403,329.36275237566247,,,,,1,1,2024-10-17_16h38.27.539,visual,2024.1.5,None,
4_con_totaldot,0.25,4,24,14,446,9,,,,4_con_totaldot_image_25.png,329.4710742506703,329.7294872086534,,,,,1,1,2024-10-17_16h38.27.539,visual,2024.1.5,None,
4_con_circum,0.25,4,24,15,447,15,,,,4_con_circum_image_8.png,329.83805912566993,330.08795975067574,,,,,1,1,2024-10-17_16h38.27.539,visual,2024.1.5,None,
6_con_singledot,0.25,6,24,16,448,5,,,,6_con_singledot_image_66.png,330.1961938756557,330.4458134586496,,,,,1,1,2024-10-17_16h38.27.539,visual,2024.1.5,None,
5_con_singledot,0.25,5,24,17,449,4,,,,5_con_singledot_image_58.png,330.5526196256668,330.8028924166613,1.wav,330.8959126249538,11.mp4,330.8959126249538,1,1,2024-10-17_16h38.27.539,visual,2024.1.5,None,
5_con_singledot,0.25,5,25,0,450,4,,,,5_con_singledot_image_30.png,332.7353643756515,332.9860079166285,,,,,1,1,2024-10-17_16h38.27.539,visual,2024.1.5,None,
1_con_singledot,0.25,1,25,1,451,0,,,,1_con_singledot_image_61.png,333.09590575066784,333.34631629166347,,,,,1,1,2024-10-17_16h38.27.539,visual,2024.1.5,None,
2_con_singledot,0.25,2,25,2,452,1,,,,2_con_singledot_image_18.png,333.4541843756723,333.7126907086388,,,,,1,1,2024-10-17_16h38.27.539,visual,2024.1.5,None,
3_con_circum,0.25,3,25,3,453,14,,,,3_con_circum_image_22.png,333.819416625627,334.07054595865,,,,,1,1,2024-10-17_16h38.27.539,visual,2024.1.5,None,
6_con_singledot,0.25,6,25,4,454,5,,,,6_con_singledot_image_27.png,334.1790730836491,334.43003916665134,,,,,1,1,2024-10-17_16h38.27.539,visual,2024.1.5,None,
1_con_circum,0.25,1,25,5,455,12,,,,1_con_circum_image_8.png,334.5392062916343,334.79618675064216,,,,,1,1,2024-10-17_16h38.27.539,visual,2024.1.5,None,
3_con_totaldot,0.25,3,25,6,456,8,,,,3_con_totaldot_image_26.png,334.9049425416432,335.1629987086674,,,,,1,1,2024-10-17_16h38.27.539,visual,2024.1.5,None,
2_con_circum,0.25,2,25,7,457,13,,,,2_con_circum_image_23.png,335.2714750416616,335.5293979166347,,,,,1,1,2024-10-17_16h38.27.539,visual,2024.1.5,None,
4_con_circum,0.25,4,25,8,458,15,,,,4_con_circum_image_25.png,335.6383160006643,335.88829337567245,,,,,1,1,2024-10-17_16h38.27.539,visual,2024.1.5,None,
4_con_totaldot,0.25,4,25,9,459,9,,,,4_con_totaldot_image_53.png,335.9963945416656,336.2454230416372,,,,,1,1,2024-10-17_16h38.27.539,visual,2024.1.5,None,
4_con_singledot,0.25,4,25,10,460,3,,,,4_con_singledot_image_48.png,336.35375387561896,336.6030006256226,,,,,1,1,2024-10-17_16h38.27.539,visual,2024.1.5,None,
5_con_circum,0.25,5,25,11,461,16,,,,5_con_circum_image_68.png,336.7120835416407,336.9633164166628,,,,,1,1,2024-10-17_16h38.27.539,visual,2024.1.5,None,
5_con_totaldot,0.25,5,25,12,462,10,,,,5_con_totaldot_image_55.png,337.0717118756419,337.3298881256526,,,,,1,1,2024-10-17_16h38.27.539,visual,2024.1.5,None,
2_con_totaldot,0.25,2,25,13,463,7,,,,2_con_totaldot_image_40.png,337.4382290416669,337.69597729162,,,,,1,1,2024-10-17_16h38.27.539,visual,2024.1.5,None,
6_con_circum,0.25,6,25,14,464,17,,,,6_con_circum_image_64.png,337.8028192086766,338.05326241662647,,,,,1,1,2024-10-17_16h38.27.539,visual,2024.1.5,None,
6_con_totaldot,0.25,6,25,15,465,11,,,,6_con_totaldot_image_31.png,338.1627912916282,338.41301962564853,,,,,1,1,2024-10-17_16h38.27.539,visual,2024.1.5,None,
1_con_totaldot,0.25,1,25,16,466,6,,,,1_con_totaldot_image_24.png,338.52147637566475,338.77082975063627,,,,,1,1,2024-10-17_16h38.27.539,visual,2024.1.5,None,
3_con_singledot,0.25,3,25,17,467,2,,,,3_con_singledot_image_16.png,338.8798349166444,339.12967995863096,5.wav,339.22188466700027,1.mp4,339.22188466700027,1,1,2024-10-17_16h38.27.539,visual,2024.1.5,None,
4_con_totaldot,0.25,4,26,0,468,9,,,,4_con_totaldot_image_2.png,341.07231970866366,341.32964283362185,,,,,1,1,2024-10-17_16h38.27.539,visual,2024.1.5,None,
1_con_circum,0.25,1,26,1,469,12,,,,1_con_circum_image_46.png,341.43644654165644,341.68645333365225,,,,,1,1,2024-10-17_16h38.27.539,visual,2024.1.5,None,
2_con_totaldot,0.25,2,26,2,470,7,,,,2_con_totaldot_image_69.png,341.79610354165004,342.04593833367494,,,,,1,1,2024-10-17_16h38.27.539,visual,2024.1.5,None,
3_con_totaldot,0.25,3,26,3,471,8,,,,3_con_totaldot_image_21.png,342.1526691256712,342.4021855416397,,,,,1,1,2024-10-17_16h38.27.539,visual,2024.1.5,None,
1_con_singledot,0.25,1,26,4,472,0,,,,1_con_singledot_image_42.png,342.513510958668,342.76341195864757,,,,,1,1,2024-10-17_16h38.27.539,visual,2024.1.5,None,
2_con_circum,0.25,2,26,5,473,13,,,,2_con_circum_image_4.png,342.8715935836352,343.12973916664873,,,,,1,1,2024-10-17_16h38.27.539,visual,2024.1.5,None,
5_con_totaldot,0.25,5,26,6,474,10,,,,5_con_totaldot_image_41.png,343.2385287916676,343.48857962567513,,,,,1,1,2024-10-17_16h38.27.539,visual,2024.1.5,None,
4_con_circum,0.25,4,26,7,475,15,,,,4_con_circum_image_47.png,343.5956761666729,343.84703162563187,,,,,1,1,2024-10-17_16h38.27.539,visual,2024.1.5,None,
6_con_circum,0.25,6,26,8,476,17,,,,6_con_circum_image_43.png,343.9554120836236,344.2123200006356,,,,,1,1,2024-10-17_16h38.27.539,visual,2024.1.5,None,
1_con_totaldot,0.25,1,26,9,477,6,,,,1_con_totaldot_image_55.png,344.3203480416249,344.5796337916438,,,,,1,1,2024-10-17_16h38.27.539,visual,2024.1.5,None,
6_con_singledot,0.25,6,26,10,478,5,,,,6_con_singledot_image_30.png,344.68637354162445,344.935799708652,,,,,1,1,2024-10-17_16h38.27.539,visual,2024.1.5,None,
5_con_singledot,0.25,5,26,11,479,4,,,,5_con_singledot_image_63.png,345.04636400067636,345.29562041664417,,,,,1,1,2024-10-17_16h38.27.539,visual,2024.1.5,None,
4_con_singledot,0.25,4,26,12,480,3,,,,4_con_singledot_image_12.png,345.40229750066453,345.6530022916306,,,,,1,1,2024-10-17_16h38.27.539,visual,2024.1.5,None,
6_con_totaldot,0.25,6,26,13,481,11,,,,6_con_totaldot_image_56.png,345.7626819166743,346.0127428756716,,,,,1,1,2024-10-17_16h38.27.539,visual,2024.1.5,None,
3_con_circum,0.25,3,26,14,482,14,,,,3_con_circum_image_55.png,346.11941195864154,346.36916579166814,,,,,1,1,2024-10-17_16h38.27.539,visual,2024.1.5,None,
5_con_circum,0.25,5,26,15,483,16,,,,5_con_circum_image_45.png,346.47886633363476,346.7296550006761,,,,,1,1,2024-10-17_16h38.27.539,visual,2024.1.5,None,
3_con_singledot,0.25,3,26,16,484,2,,,,3_con_singledot_image_58.png,346.8379625836659,347.0958205836398,,,,,1,1,2024-10-17_16h38.27.539,visual,2024.1.5,None,
2_con_singledot,0.25,2,26,17,485,1,,,,2_con_singledot_image_59.png,347.2026931256677,347.45284445863604,3.wav,347.54571429197676,3.mp4,347.54571429197676,1,1,2024-10-17_16h38.27.539,visual,2024.1.5,None,
1_con_singledot,0.25,1,27,0,486,0,,,,1_con_singledot_image_59.png,349.3841175416756,349.6365791256578,,,,,1,1,2024-10-17_16h38.27.539,visual,2024.1.5,None,
2_con_singledot,0.25,2,27,1,487,1,,,,2_con_singledot_image_6.png,349.7491942506439,350.00260075065694,,,,,1,1,2024-10-17_16h38.27.539,visual,2024.1.5,None,
6_con_totaldot,0.25,6,27,2,488,11,,,,6_con_totaldot_image_45.png,350.1135016666648,350.36900520866425,,,,,1,1,2024-10-17_16h38.27.539,visual,2024.1.5,None,
1_con_totaldot,0.25,1,27,3,489,6,,,,1_con_totaldot_image_33.png,350.4801484166218,350.7301527916609,,,,,1,1,2024-10-17_16h38.27.539,visual,2024.1.5,None,
1_con_circum,0.25,1,27,4,490,12,,,,1_con_circum_image_41.png,350.83852137563906,351.0883863336678,,,,,1,1,2024-10-17_16h38.27.539,visual,2024.1.5,None,
6_con_circum,0.25,6,27,5,491,17,,,,6_con_circum_image_16.png,351.1967566666698,351.4465804166432,,,,,1,1,2024-10-17_16h38.27.539,visual,2024.1.5,None,
5_con_circum,0.25,5,27,6,492,16,,,,5_con_circum_image_32.png,351.5533180836627,351.8060826666226,,,,,1,1,2024-10-17_16h38.27.539,visual,2024.1.5,None,
5_con_singledot,0.25,5,27,7,493,4,,,,5_con_singledot_image_1.png,351.9150859166674,352.17180312564983,,,,,1,1,2024-10-17_16h38.27.539,visual,2024.1.5,None,
3_con_circum,0.25,3,27,8,494,14,,,,3_con_circum_image_57.png,352.28013345863826,352.52993875067136,,,,,1,1,2024-10-17_16h38.27.539,visual,2024.1.5,None,
4_con_circum,0.25,4,27,9,495,15,,,,4_con_circum_image_21.png,352.63670816665206,352.88701479166434,,,,,1,1,2024-10-17_16h38.27.539,visual,2024.1.5,None,
3_con_totaldot,0.25,3,27,10,496,8,,,,3_con_totaldot_image_24.png,352.9957275006726,353.24691166665093,,,,,1,1,2024-10-17_16h38.27.539,visual,2024.1.5,None,
4_con_totaldot,0.25,4,27,11,497,9,,,,4_con_totaldot_image_29.png,353.355229625622,353.60508620867427,,,,,1,1,2024-10-17_16h38.27.539,visual,2024.1.5,None,
3_con_singledot,0.25,3,27,12,498,2,,,,3_con_singledot_image_41.png,353.71300087563384,353.9625280006478,,,,,1,1,2024-10-17_16h38.27.539,visual,2024.1.5,None,
2_con_circum,0.25,2,27,13,499,13,,,,2_con_circum_image_25.png,354.06927579166756,354.32012775063436,,,,,1,1,2024-10-17_16h38.27.539,visual,2024.1.5,None,
6_con_singledot,0.25,6,27,14,500,5,,,,6_con_singledot_image_36.png,354.42948633365256,354.68002058362276,,,,,1,1,2024-10-17_16h38.27.539,visual,2024.1.5,None,
5_con_totaldot,0.25,5,27,15,501,10,,,,5_con_totaldot_image_46.png,354.7867735836461,355.0383012916466,,,,,1,1,2024-10-17_16h38.27.539,visual,2024.1.5,None,
2_con_totaldot,0.25,2,27,16,502,7,,,,2_con_totaldot_image_30.png,355.1467237916348,355.3965991256448,,,,,1,1,2024-10-17_16h38.27.539,visual,2024.1.5,None,
4_con_singledot,0.25,4,27,17,503,3,,,,4_con_singledot_image_66.png,355.5049479586577,355.76237825066005,2.wav,355.8525733749848,5.mp4,355.8525733749848,1,1,2024-10-17_16h38.27.539,visual,2024.1.5,None,
2_con_totaldot,0.25,2,28,0,504,7,,,,2_con_totaldot_image_34.png,357.69826504164763,357.95391979162036,,,,,1,1,2024-10-17_16h38.27.539,visual,2024.1.5,None,
5_con_singledot,0.25,5,28,1,505,4,,,,5_con_singledot_image_4.png,358.06332879166973,358.3132935836368,,,,,1,1,2024-10-17_16h38.27.539,visual,2024.1.5,None,
1_con_totaldot,0.25,1,28,2,506,6,,,,1_con_totaldot_image_36.png,358.4202242916489,358.67020675063054,,,,,1,1,2024-10-17_16h38.27.539,visual,2024.1.5,None,
2_con_circum,0.25,2,28,3,507,13,,,,2_con_circum_image_70.png,358.7800622086196,359.0332767506518,,,,,1,1,2024-10-17_16h38.27.539,visual,2024.1.5,None,
1_con_circum,0.25,1,28,4,508,12,,,,1_con_circum_image_26.png,359.14704666661953,359.3963478756525,,,,,1,1,2024-10-17_16h38.27.539,visual,2024.1.5,None,
4_con_circum,0.25,4,28,5,509,15,,,,4_con_circum_image_50.png,359.5035188756573,359.7537441666393,,,,,1,1,2024-10-17_16h38.27.539,visual,2024.1.5,None,
3_con_totaldot,0.25,3,28,6,510,8,,,,3_con_totaldot_image_39.png,359.8625998756305,360.1130726256563,,,,,1,1,2024-10-17_16h38.27.539,visual,2024.1.5,None,
5_con_circum,0.25,5,28,7,511,16,,,,5_con_circum_image_67.png,360.2204884586662,360.4707612916284,,,,,1,1,2024-10-17_16h38.27.539,visual,2024.1.5,None,
6_con_totaldot,0.25,6,28,8,512,11,,,,6_con_totaldot_image_11.png,360.5800517086444,360.8300035006289,,,,,1,1,2024-10-17_16h38.27.539,visual,2024.1.5,None,
5_con_totaldot,0.25,5,28,9,513,10,,,,5_con_totaldot_image_53.png,360.9381615006404,361.1882559586704,,,,,1,1,2024-10-17_16h38.27.539,visual,2024.1.5,None,
6_con_singledot,0.25,6,28,10,514,5,,,,6_con_singledot_image_67.png,361.29745833363074,361.546694291643,,,,,1,1,2024-10-17_16h38.27.539,visual,2024.1.5,None,
1_con_singledot,0.25,1,28,11,515,0,,,,1_con_singledot_image_60.png,361.6559254166476,361.9130771666571,,,,,1,1,2024-10-17_16h38.27.539,visual,2024.1.5,None,
4_con_singledot,0.25,4,28,12,516,3,,,,4_con_singledot_image_47.png,362.02039708362815,362.27002150065186,,,,,1,1,2024-10-17_16h38.27.539,visual,2024.1.5,None,
3_con_singledot,0.25,3,28,13,517,2,,,,3_con_singledot_image_56.png,362.37978100063435,362.63003229163974,,,,,1,1,2024-10-17_16h38.27.539,visual,2024.1.5,None,
2_con_singledot,0.25,2,28,14,518,1,,,,2_con_singledot_image_69.png,362.736925208619,362.9865159586227,,,,,1,1,2024-10-17_16h38.27.539,visual,2024.1.5,None,
6_con_circum,0.25,6,28,15,519,17,,,,6_con_circum_image_3.png,363.0958819586357,363.34601025062534,,,,,1,1,2024-10-17_16h38.27.539,visual,2024.1.5,None,
4_con_totaldot,0.25,4,28,16,520,9,,,,4_con_totaldot_image_58.png,363.4533926256389,363.7034877086446,,,,,1,1,2024-10-17_16h38.27.539,visual,2024.1.5,None,
3_con_circum,0.25,3,28,17,521,14,,,,3_con_circum_image_34.png,363.8134575836283,364.0634991256559,2.wav,364.15380695898784,4.mp4,364.15380695898784,1,1,2024-10-17_16h38.27.539,visual,2024.1.5,None,
2_con_circum,0.25,2,29,0,522,13,,,,2_con_circum_image_43.png,365.9999792916506,366.25528212567247,,,,,1,1,2024-10-17_16h38.27.539,visual,2024.1.5,None,
4_con_circum,0.25,4,29,1,523,15,,,,4_con_circum_image_6.png,366.3634637506601,366.61258066667165,,,,,1,1,2024-10-17_16h38.27.539,visual,2024.1.5,None,
4_con_singledot,0.25,4,29,2,524,3,,,,4_con_singledot_image_30.png,366.7192709166246,366.97006462567174,,,,,1,1,2024-10-17_16h38.27.539,visual,2024.1.5,None,
3_con_totaldot,0.25,3,29,3,525,8,,,,3_con_totaldot_image_1.png,367.07925825062364,367.3301612916441,,,,,1,1,2024-10-17_16h38.27.539,visual,2024.1.5,None,
6_con_singledot,0.25,6,29,4,526,5,,,,6_con_singledot_image_32.png,367.4389403336371,367.695911708641,,,,,1,1,2024-10-17_16h38.27.539,visual,2024.1.5,None,
4_con_totaldot,0.25,4,29,5,527,9,,,,4_con_totaldot_image_69.png,367.8027536256394,368.0534847916608,,,,,1,1,2024-10-17_16h38.27.539,visual,2024.1.5,None,
2_con_totaldot,0.25,2,29,6,528,7,,,,2_con_totaldot_image_2.png,368.1764769586424,368.43011875066827,,,,,1,1,2024-10-17_16h38.27.539,visual,2024.1.5,None,
5_con_circum,0.25,5,29,7,529,16,,,,5_con_circum_image_53.png,368.5384921256608,368.79718266666555,,,,,1,1,2024-10-17_16h38.27.539,visual,2024.1.5,None,
6_con_circum,0.25,6,29,8,530,17,,,,6_con_circum_image_11.png,368.9056993756366,369.15554233367243,,,,,1,1,2024-10-17_16h38.27.539,visual,2024.1.5,None,
5_con_totaldot,0.25,5,29,9,531,10,,,,5_con_totaldot_image_66.png,369.26386312566854,369.51339162566387,,,,,1,1,2024-10-17_16h38.27.539,visual,2024.1.5,None,
1_con_singledot,0.25,1,29,10,532,0,,,,1_con_singledot_image_47.png,369.6200109586624,369.8700331256298,,,,,1,1,2024-10-17_16h38.27.539,visual,2024.1.5,None,
3_con_singledot,0.25,3,29,11,533,2,,,,3_con_singledot_image_24.png,369.98061720866633,370.2301143336265,,,,,1,1,2024-10-17_16h38.27.539,visual,2024.1.5,None,
3_con_circum,0.25,3,29,12,534,14,,,,3_con_circum_image_16.png,370.336901083674,370.5872400006667,,,,,1,1,2024-10-17_16h38.27.539,visual,2024.1.5,None,
6_con_totaldot,0.25,6,29,13,535,11,,,,6_con_totaldot_image_16.png,370.6967547506482,370.9470423336645,,,,,1,1,2024-10-17_16h38.27.539,visual,2024.1.5,None,
1_con_circum,0.25,1,29,14,536,12,,,,1_con_circum_image_65.png,371.05544033364083,371.31417575065666,,,,,1,1,2024-10-17_16h38.27.539,visual,2024.1.5,None,
1_con_totaldot,0.25,1,29,15,537,6,,,,1_con_totaldot_image_21.png,371.4227044166454,371.6801476666626,,,,,1,1,2024-10-17_16h38.27.539,visual,2024.1.5,None,
2_con_singledot,0.25,2,29,16,538,1,,,,2_con_singledot_image_46.png,371.78880929163813,372.0467007506561,,,,,1,1,2024-10-17_16h38.27.539,visual,2024.1.5,None,
5_con_singledot,0.25,5,29,17,539,4,,,,5_con_singledot_image_3.png,372.1555106666327,372.413605541635,1.wav,372.50574950000737,6.mp4,372.50574950000737,1,1,2024-10-17_16h38.27.539,visual,2024.1.5,None,
1_con_circum,0.25,1,30,0,540,12,,,,1_con_circum_image_42.png,374.3654085416502,374.62047462567375,,,,,1,1,2024-10-17_16h38.27.539,visual,2024.1.5,None,
2_con_singledot,0.25,2,30,1,541,1,,,,2_con_singledot_image_24.png,374.7302103336241,374.98052758362996,,,,,1,1,2024-10-17_16h38.27.539,visual,2024.1.5,None,
5_con_totaldot,0.25,5,30,2,542,10,,,,5_con_totaldot_image_15.png,375.0888105006578,375.346792041619,,,,,1,1,2024-10-17_16h38.27.539,visual,2024.1.5,None,
3_con_circum,0.25,3,30,3,543,14,,,,3_con_circum_image_44.png,375.4558272916746,375.7137507916234,,,,,1,1,2024-10-17_16h38.27.539,visual,2024.1.5,None,
2_con_circum,0.25,2,30,4,544,13,,,,2_con_circum_image_21.png,375.8205075416753,376.0696732086401,,,,,1,1,2024-10-17_16h38.27.539,visual,2024.1.5,None,
1_con_totaldot,0.25,1,30,5,545,6,,,,1_con_totaldot_image_19.png,376.18024783363023,376.4307794166418,,,,,1,1,2024-10-17_16h38.27.539,visual,2024.1.5,None,
6_con_circum,0.25,6,30,6,546,17,,,,6_con_circum_image_37.png,376.53967462564276,376.79698579165074,,,,,1,1,2024-10-17_16h38.27.539,visual,2024.1.5,None,
4_con_singledot,0.25,4,30,7,547,3,,,,4_con_singledot_image_56.png,376.9036838756564,377.15564716665926,,,,,1,1,2024-10-17_16h38.27.539,visual,2024.1.5,None,
4_con_circum,0.25,4,30,8,548,15,,,,4_con_circum_image_65.png,377.26377354163367,377.5140821256248,,,,,1,1,2024-10-17_16h38.27.539,visual,2024.1.5,None,
6_con_totaldot,0.25,6,30,9,549,11,,,,6_con_totaldot_image_50.png,377.6228930416672,377.88022866665074,,,,,1,1,2024-10-17_16h38.27.539,visual,2024.1.5,None,
3_con_totaldot,0.25,3,30,10,550,8,,,,3_con_totaldot_image_11.png,377.98699641666997,378.2365967086555,,,,,1,1,2024-10-17_16h38.27.539,visual,2024.1.5,None,
1_con_singledot,0.25,1,30,11,551,0,,,,1_con_singledot_image_41.png,378.34678462563704,378.5972179586572,,,,,1,1,2024-10-17_16h38.27.539,visual,2024.1.5,None,
4_con_totaldot,0.25,4,30,12,552,9,,,,4_con_totaldot_image_3.png,378.7060156666247,378.95536037563966,,,,,1,1,2024-10-17_16h38.27.539,visual,2024.1.5,None,
5_con_circum,0.25,5,30,13,553,16,,,,5_con_circum_image_47.png,379.0635888756641,379.31410929165236,,,,,1,1,2024-10-17_16h38.27.539,visual,2024.1.5,None,
3_con_singledot,0.25,3,30,14,554,2,,,,3_con_singledot_image_38.png,379.4224657086578,379.6802779586326,,,,,1,1,2024-10-17_16h38.27.539,visual,2024.1.5,None,
,,,,,,,,,,6_con_singledot_image_34.png,379.78942291662486,380.3385567916596,,,,,,,,,,,
