condition,duration,numerosity,trials.thisRepN,trials.thisTrialN,trials.thisN,trials.thisIndex,thisRow.t,notes,text_welcome.started,image_name,image.started,image.stopped,audio_name,audio_started,movie_name,movie_started,participant,session,date|hid,expName|hid,psychopyVersion|hid,frameRate,
5_con_circum,0.25,5,0,0,0,16,,,113.49306487501599,5_con_circum_image_70.png,117.43425340839894,117.69112703819701,,,,,1,1,2024-10-13_00h55.46.358,visual,2024.1.5,121.00994953036302,
3_con_circum,0.25,3,0,1,1,14,,,,3_con_circum_image_33.png,117.79850015456032,118.04792262120463,,,,,1,1,2024-10-13_00h55.46.358,visual,2024.1.5,121.00994953036302,
5_con_singledot,0.25,5,0,2,2,4,,,,5_con_singledot_image_54.png,118.15603532157547,118.40722466319858,,,,,1,1,2024-10-13_00h55.46.358,visual,2024.1.5,121.00994953036302,
2_con_totaldot,0.25,2,0,3,3,7,,,,2_con_totaldot_image_23.png,118.51343277956767,118.76522762120294,,,,,1,1,2024-10-13_00h55.46.358,visual,2024.1.5,121.00994953036302,
1_con_circum,0.25,1,0,4,4,12,,,,1_con_circum_image_65.png,118.87324573857768,119.12385762120539,,,,,1,1,2024-10-13_00h55.46.358,visual,2024.1.5,121.00994953036302,
3_con_singledot,0.25,3,0,5,5,2,,,,3_con_singledot_image_51.png,119.2300485715823,119.48148537120142,,,,,1,1,2024-10-13_00h55.46.358,visual,2024.1.5,121.00994953036302,
3_con_totaldot,0.25,3,0,6,6,8,,,,3_con_totaldot_image_55.png,119.5891955295665,119.84149016319134,,,,,1,1,2024-10-13_00h55.46.358,visual,2024.1.5,121.00994953036302,
4_con_singledot,0.25,4,0,7,7,3,,,,4_con_singledot_image_20.png,119.94863057158364,120.19850874620897,,,,,1,1,2024-10-13_00h55.46.358,visual,2024.1.5,121.00994953036302,
6_con_totaldot,0.25,6,0,8,8,11,,,,6_con_totaldot_image_6.png,120.30602111357439,120.55796791320608,,,,,1,1,2024-10-13_00h55.46.358,visual,2024.1.5,121.00994953036302,
6_con_singledot,0.25,6,0,9,9,5,,,,6_con_singledot_image_40.png,120.66421661358618,120.91531816321367,,,,,1,1,2024-10-13_00h55.46.358,visual,2024.1.5,121.00994953036302,
5_con_totaldot,0.25,5,0,10,10,10,,,,5_con_totaldot_image_27.png,121.02348711357627,121.27441532920056,,,,,1,1,2024-10-13_00h55.46.358,visual,2024.1.5,121.00994953036302,
2_con_circum,0.25,2,0,11,11,13,,,,2_con_circum_image_64.png,121.38217727957817,121.63199549620913,,,,,1,1,2024-10-13_00h55.46.358,visual,2024.1.5,121.00994953036302,
4_con_circum,0.25,4,0,12,12,15,,,,4_con_circum_image_46.png,121.73921598856396,121.99054028819955,,,,,1,1,2024-10-13_00h55.46.358,visual,2024.1.5,121.00994953036302,
2_con_singledot,0.25,2,0,13,13,1,,,,2_con_singledot_image_3.png,122.09681086357159,122.3481828711956,,,,,1,1,2024-10-13_00h55.46.358,visual,2024.1.5,121.00994953036302,
1_con_singledot,0.25,1,0,14,14,0,,,,1_con_singledot_image_33.png,122.45592094656604,122.7077750791941,,,,,1,1,2024-10-13_00h55.46.358,visual,2024.1.5,121.00994953036302,
1_con_totaldot,0.25,1,0,15,15,6,,,,1_con_totaldot_image_19.png,122.81415619656036,123.06470107920177,,,,,1,1,2024-10-13_00h55.46.358,visual,2024.1.5,121.00994953036302,
6_con_circum,0.25,6,0,16,16,17,,,,6_con_circum_image_34.png,123.17258394656528,123.42413624619076,,,,,1,1,2024-10-13_00h55.46.358,visual,2024.1.5,121.00994953036302,
4_con_totaldot,0.25,4,0,17,17,9,,,,4_con_totaldot_image_47.png,123.53050377957697,123.78148087121372,4.wav,123.8825866249972,14.mp4,123.8825866249972,1,1,2024-10-13_00h55.46.358,visual,2024.1.5,121.00994953036302,
3_con_singledot,0.25,3,1,0,18,2,,,,3_con_singledot_image_42.png,125.7246280113759,125.97414320420648,,,,,1,1,2024-10-13_00h55.46.358,visual,2024.1.5,121.00994953036302,
4_con_circum,0.25,4,1,1,19,15,,,,4_con_circum_image_30.png,126.08058540457569,126.33155095421534,,,,,1,1,2024-10-13_00h55.46.358,visual,2024.1.5,121.00994953036302,
2_con_totaldot,0.25,2,1,2,20,7,,,,2_con_totaldot_image_64.png,126.43996565458656,126.69078353820078,,,,,1,1,2024-10-13_00h55.46.358,visual,2024.1.5,121.00994953036302,
1_con_circum,0.25,1,1,3,21,12,,,,1_con_circum_image_38.png,126.79709219657525,127.04867353821464,,,,,1,1,2024-10-13_00h55.46.358,visual,2024.1.5,121.00994953036302,
1_con_totaldot,0.25,1,1,4,22,6,,,,1_con_totaldot_image_7.png,127.15699423856859,127.40795695419365,,,,,1,1,2024-10-13_00h55.46.358,visual,2024.1.5,121.00994953036302,
6_con_totaldot,0.25,6,1,5,23,11,,,,6_con_totaldot_image_61.png,127.51421723856765,127.76506857918866,,,,,1,1,2024-10-13_00h55.46.358,visual,2024.1.5,121.00994953036302,
6_con_singledot,0.25,6,1,6,24,5,,,,6_con_singledot_image_42.png,127.87276098858274,128.12472270418948,,,,,1,1,2024-10-13_00h55.46.358,visual,2024.1.5,121.00994953036302,
3_con_circum,0.25,3,1,7,25,14,,,,3_con_circum_image_14.png,128.23098673856293,128.491547954196,,,,,1,1,2024-10-13_00h55.46.358,visual,2024.1.5,121.00994953036302,
6_con_circum,0.25,6,1,8,26,17,,,,6_con_circum_image_57.png,128.60729715456546,128.89559732920316,,,,,1,1,2024-10-13_00h55.46.358,visual,2024.1.5,121.00994953036302,
5_con_totaldot,0.25,5,1,9,27,10,,,,5_con_totaldot_image_16.png,129.006484196565,129.260337246189,,,,,1,1,2024-10-13_00h55.46.358,visual,2024.1.5,121.00994953036302,
3_con_totaldot,0.25,3,1,10,28,8,,,,3_con_totaldot_image_13.png,129.36665427956905,129.62456228821247,,,,,1,1,2024-10-13_00h55.46.358,visual,2024.1.5,121.00994953036302,
5_con_singledot,0.25,5,1,11,29,4,,,,5_con_singledot_image_65.png,129.73087415458576,129.98202374619723,,,,,1,1,2024-10-13_00h55.46.358,visual,2024.1.5,121.00994953036302,
4_con_totaldot,0.25,4,1,12,30,9,,,,4_con_totaldot_image_69.png,130.08933736356266,130.34112245419237,,,,,1,1,2024-10-13_00h55.46.358,visual,2024.1.5,121.00994953036302,
4_con_singledot,0.25,4,1,13,31,3,,,,4_con_singledot_image_48.png,130.44741073857585,130.69905387119798,,,,,1,1,2024-10-13_00h55.46.358,visual,2024.1.5,121.00994953036302,
1_con_singledot,0.25,1,1,14,32,0,,,,1_con_singledot_image_53.png,130.80607540458732,131.05801162119315,,,,,1,1,2024-10-13_00h55.46.358,visual,2024.1.5,121.00994953036302,
5_con_circum,0.25,5,1,15,33,16,,,,5_con_circum_image_26.png,131.16424269658455,131.4144060792023,,,,,1,1,2024-10-13_00h55.46.358,visual,2024.1.5,121.00994953036302,
2_con_singledot,0.25,2,1,16,34,1,,,,2_con_singledot_image_36.png,131.5235416135838,131.77467132919992,,,,,1,1,2024-10-13_00h55.46.358,visual,2024.1.5,121.00994953036302,
2_con_circum,0.25,2,1,17,35,13,,,,2_con_circum_image_63.png,131.88108619656123,132.13234374621243,1.wav,132.2327950420149,4.mp4,132.2327950420149,1,1,2024-10-13_00h55.46.358,visual,2024.1.5,121.00994953036302,
2_con_totaldot,0.25,2,2,0,36,7,,,,2_con_totaldot_image_5.png,134.0898161783698,134.34144724618818,,,,,1,1,2024-10-13_00h55.46.358,visual,2024.1.5,121.00994953036302,
5_con_totaldot,0.25,5,2,1,37,10,,,,5_con_totaldot_image_21.png,134.4478116135724,134.69833757918968,,,,,1,1,2024-10-13_00h55.46.358,visual,2024.1.5,121.00994953036302,
1_con_totaldot,0.25,1,2,2,38,6,,,,1_con_totaldot_image_28.png,134.80637627957913,135.05738095419656,,,,,1,1,2024-10-13_00h55.46.358,visual,2024.1.5,121.00994953036302,
4_con_circum,0.25,4,2,3,39,15,,,,4_con_circum_image_47.png,135.16365594656963,135.4157552461984,,,,,1,1,2024-10-13_00h55.46.358,visual,2024.1.5,121.00994953036302,
4_con_totaldot,0.25,4,2,4,40,9,,,,4_con_totaldot_image_51.png,135.52284040457744,135.77494882918836,,,,,1,1,2024-10-13_00h55.46.358,visual,2024.1.5,121.00994953036302,
1_con_singledot,0.25,1,2,5,41,0,,,,1_con_singledot_image_60.png,135.8812329465727,136.13216370421287,,,,,1,1,2024-10-13_00h55.46.358,visual,2024.1.5,121.00994953036302,
3_con_circum,0.25,3,2,6,42,14,,,,3_con_circum_image_10.png,136.2400490295695,136.49095312120335,,,,,1,1,2024-10-13_00h55.46.358,visual,2024.1.5,121.00994953036302,
3_con_singledot,0.25,3,2,7,43,2,,,,3_con_singledot_image_46.png,136.59766344657692,136.84822191319836,,,,,1,1,2024-10-13_00h55.46.358,visual,2024.1.5,121.00994953036302,
6_con_totaldot,0.25,6,2,8,44,11,,,,6_con_totaldot_image_53.png,136.95709607157914,137.2076502462005,,,,,1,1,2024-10-13_00h55.46.358,visual,2024.1.5,121.00994953036302,
5_con_circum,0.25,5,2,9,45,16,,,,5_con_circum_image_35.png,137.3138873635762,137.5653216632054,,,,,1,1,2024-10-13_00h55.46.358,visual,2024.1.5,121.00994953036302,
4_con_singledot,0.25,4,2,10,46,3,,,,4_con_singledot_image_49.png,137.6734251545713,137.9241571212042,,,,,1,1,2024-10-13_00h55.46.358,visual,2024.1.5,121.00994953036302,
3_con_totaldot,0.25,3,2,11,47,8,,,,3_con_totaldot_image_12.png,138.03037598858646,138.28180499620794,,,,,1,1,2024-10-13_00h55.46.358,visual,2024.1.5,121.00994953036302,
1_con_circum,0.25,1,2,12,48,12,,,,1_con_circum_image_59.png,138.38994911358168,138.64149337120762,,,,,1,1,2024-10-13_00h55.46.358,visual,2024.1.5,121.00994953036302,
2_con_singledot,0.25,2,2,13,49,1,,,,2_con_singledot_image_5.png,138.74768511358707,138.99846037120733,,,,,1,1,2024-10-13_00h55.46.358,visual,2024.1.5,121.00994953036302,
6_con_singledot,0.25,6,2,14,50,5,,,,6_con_singledot_image_66.png,139.10719748858537,139.3583437042107,,,,,1,1,2024-10-13_00h55.46.358,visual,2024.1.5,121.00994953036302,
6_con_circum,0.25,6,2,15,51,17,,,,6_con_circum_image_8.png,139.464654321564,139.71519024619192,,,,,1,1,2024-10-13_00h55.46.358,visual,2024.1.5,121.00994953036302,
2_con_circum,0.25,2,2,16,52,13,,,,2_con_circum_image_59.png,139.82305582157278,140.07430437121366,,,,,1,1,2024-10-13_00h55.46.358,visual,2024.1.5,121.00994953036302,
5_con_singledot,0.25,5,2,17,53,4,,,,5_con_singledot_image_41.png,140.18071519657678,140.43179570419306,2.wav,140.53377425001236,2.mp4,140.53377425001236,1,1,2024-10-13_00h55.46.358,visual,2024.1.5,121.00994953036302,
1_con_singledot,0.25,1,3,0,54,0,,,,1_con_singledot_image_12.png,142.36090522035374,142.61568666320818,,,,,1,1,2024-10-13_00h55.46.358,visual,2024.1.5,121.00994953036302,
3_con_totaldot,0.25,3,3,1,55,8,,,,3_con_totaldot_image_25.png,142.7231874465797,142.97504732919333,,,,,1,1,2024-10-13_00h55.46.358,visual,2024.1.5,121.00994953036302,
4_con_totaldot,0.25,4,3,2,56,9,,,,4_con_totaldot_image_29.png,143.0813230295753,143.33306091320992,,,,,1,1,2024-10-13_00h55.46.358,visual,2024.1.5,121.00994953036302,
3_con_circum,0.25,3,3,3,57,14,,,,3_con_circum_image_55.png,143.439757738568,143.69124707921583,,,,,1,1,2024-10-13_00h55.46.358,visual,2024.1.5,121.00994953036302,
3_con_singledot,0.25,3,3,4,58,2,,,,3_con_singledot_image_45.png,143.79753907157283,144.04929291321605,,,,,1,1,2024-10-13_00h55.46.358,visual,2024.1.5,121.00994953036302,
6_con_singledot,0.25,6,3,5,59,5,,,,6_con_singledot_image_69.png,144.1563510295673,144.40846991319268,,,,,1,1,2024-10-13_00h55.46.358,visual,2024.1.5,121.00994953036302,
1_con_totaldot,0.25,1,3,6,60,6,,,,1_con_totaldot_image_64.png,144.51489490458334,144.7654376631981,,,,,1,1,2024-10-13_00h55.46.358,visual,2024.1.5,121.00994953036302,
2_con_singledot,0.25,2,3,7,61,1,,,,2_con_singledot_image_34.png,144.8730721965694,145.12456437120272,,,,,1,1,2024-10-13_00h55.46.358,visual,2024.1.5,121.00994953036302,
6_con_circum,0.25,6,3,8,62,17,,,,6_con_circum_image_40.png,145.23083582158142,145.48185520419793,,,,,1,1,2024-10-13_00h55.46.358,visual,2024.1.5,121.00994953036302,
2_con_totaldot,0.25,2,3,9,63,7,,,,2_con_totaldot_image_55.png,145.59055994656228,145.8410540381883,,,,,1,1,2024-10-13_00h55.46.358,visual,2024.1.5,121.00994953036302,
6_con_totaldot,0.25,6,3,10,64,11,,,,6_con_totaldot_image_12.png,145.94735098858655,146.19846874619543,,,,,1,1,2024-10-13_00h55.46.358,visual,2024.1.5,121.00994953036302,
2_con_circum,0.25,2,3,11,65,13,,,,2_con_circum_image_25.png,146.30733598857478,146.5576910381933,,,,,1,1,2024-10-13_00h55.46.358,visual,2024.1.5,121.00994953036302,
4_con_circum,0.25,4,3,12,66,15,,,,4_con_circum_image_42.png,146.66413123857637,146.91622395419108,,,,,1,1,2024-10-13_00h55.46.358,visual,2024.1.5,121.00994953036302,
5_con_circum,0.25,5,3,13,67,16,,,,5_con_circum_image_48.png,147.02329707155877,147.27460920419253,,,,,1,1,2024-10-13_00h55.46.358,visual,2024.1.5,121.00994953036302,
5_con_singledot,0.25,5,3,14,68,4,,,,5_con_singledot_image_63.png,147.38144227956946,147.633473538197,,,,,1,1,2024-10-13_00h55.46.358,visual,2024.1.5,121.00994953036302,
1_con_circum,0.25,1,3,15,69,12,,,,1_con_circum_image_50.png,147.7408202795632,147.99584120420332,,,,,1,1,2024-10-13_00h55.46.358,visual,2024.1.5,121.00994953036302,
4_con_singledot,0.25,4,3,16,70,3,,,,4_con_singledot_image_62.png,148.10402240457188,148.35784028821217,,,,,1,1,2024-10-13_00h55.46.358,visual,2024.1.5,121.00994953036302,
5_con_totaldot,0.25,5,3,17,71,10,,,,5_con_totaldot_image_36.png,148.46436790456937,148.71546607920027,5.wav,148.81642958399607,1.mp4,148.81642958399607,1,1,2024-10-13_00h55.46.358,visual,2024.1.5,121.00994953036302,
2_con_circum,0.25,2,4,0,72,13,,,,2_con_circum_image_32.png,150.65107197038014,150.90789357920585,,,,,1,1,2024-10-13_00h55.46.358,visual,2024.1.5,121.00994953036302,
2_con_totaldot,0.25,2,4,1,73,7,,,,2_con_totaldot_image_21.png,151.0141919465823,151.29999724619847,,,,,1,1,2024-10-13_00h55.46.358,visual,2024.1.5,121.00994953036302,
6_con_totaldot,0.25,6,4,2,74,11,,,,6_con_totaldot_image_11.png,151.4115871545655,151.66673766319582,,,,,1,1,2024-10-13_00h55.46.358,visual,2024.1.5,121.00994953036302,
4_con_totaldot,0.25,4,4,3,75,9,,,,4_con_totaldot_image_4.png,151.77352852957847,152.0245977461891,,,,,1,1,2024-10-13_00h55.46.358,visual,2024.1.5,121.00994953036302,
1_con_circum,0.25,1,4,4,76,12,,,,1_con_circum_image_53.png,152.13118294657033,152.38222716319433,,,,,1,1,2024-10-13_00h55.46.358,visual,2024.1.5,121.00994953036302,
5_con_singledot,0.25,5,4,5,77,4,,,,5_con_singledot_image_50.png,152.48999090456346,152.74156416319602,,,,,1,1,2024-10-13_00h55.46.358,visual,2024.1.5,121.00994953036302,
6_con_singledot,0.25,6,4,6,78,5,,,,6_con_singledot_image_28.png,152.84784665457846,153.09906253819645,,,,,1,1,2024-10-13_00h55.46.358,visual,2024.1.5,121.00994953036302,
4_con_circum,0.25,4,4,7,79,15,,,,4_con_circum_image_37.png,153.20661027957976,153.45884303819912,,,,,1,1,2024-10-13_00h55.46.358,visual,2024.1.5,121.00994953036302,
3_con_singledot,0.25,3,4,8,80,2,,,,3_con_singledot_image_59.png,153.56505552957242,153.81726553819317,,,,,1,1,2024-10-13_00h55.46.358,visual,2024.1.5,121.00994953036302,
5_con_totaldot,0.25,5,4,9,81,10,,,,5_con_totaldot_image_29.png,153.92430957157922,154.17458849620016,,,,,1,1,2024-10-13_00h55.46.358,visual,2024.1.5,121.00994953036302,
1_con_totaldot,0.25,1,4,10,82,6,,,,1_con_totaldot_image_15.png,154.2811316545849,154.5324264131923,,,,,1,1,2024-10-13_00h55.46.358,visual,2024.1.5,121.00994953036302,
6_con_circum,0.25,6,4,11,83,17,,,,6_con_circum_image_9.png,154.64022936356196,154.89146924619854,,,,,1,1,2024-10-13_00h55.46.358,visual,2024.1.5,121.00994953036302,
3_con_circum,0.25,3,4,12,84,14,,,,3_con_circum_image_17.png,154.9979241135734,155.2488131212158,,,,,1,1,2024-10-13_00h55.46.358,visual,2024.1.5,121.00994953036302,
3_con_totaldot,0.25,3,4,13,85,8,,,,3_con_totaldot_image_57.png,155.3569436135731,155.60812957921007,,,,,1,1,2024-10-13_00h55.46.358,visual,2024.1.5,121.00994953036302,
5_con_circum,0.25,5,4,14,86,16,,,,5_con_circum_image_14.png,155.7144204465585,155.96641478819947,,,,,1,1,2024-10-13_00h55.46.358,visual,2024.1.5,121.00994953036302,
2_con_singledot,0.25,2,4,15,87,1,,,,2_con_singledot_image_40.png,156.07334619657195,156.32464078821067,,,,,1,1,2024-10-13_00h55.46.358,visual,2024.1.5,121.00994953036302,
1_con_singledot,0.25,1,4,16,88,0,,,,1_con_singledot_image_47.png,156.43086848857638,156.68316812119156,,,,,1,1,2024-10-13_00h55.46.358,visual,2024.1.5,121.00994953036302,
4_con_singledot,0.25,4,4,17,89,3,,,,4_con_singledot_image_13.png,156.79096611357818,157.0420104132063,5.wav,157.1414405000105,4.mp4,157.1414405000105,1,1,2024-10-13_00h55.46.358,visual,2024.1.5,121.00994953036302,
5_con_totaldot,0.25,5,5,0,90,10,,,,5_con_totaldot_image_65.png,158.98050897035864,159.2323419542081,,,,,1,1,2024-10-13_00h55.46.358,visual,2024.1.5,121.00994953036302,
3_con_circum,0.25,3,5,1,91,14,,,,3_con_circum_image_19.png,159.34080990457733,159.5917931212025,,,,,1,1,2024-10-13_00h55.46.358,visual,2024.1.5,121.00994953036302,
6_con_circum,0.25,6,5,2,92,17,,,,6_con_circum_image_60.png,159.69810340456024,159.94963416318933,,,,,1,1,2024-10-13_00h55.46.358,visual,2024.1.5,121.00994953036302,
2_con_singledot,0.25,2,5,3,93,1,,,,2_con_singledot_image_37.png,160.05678427957173,160.30843216319045,,,,,1,1,2024-10-13_00h55.46.358,visual,2024.1.5,121.00994953036302,
4_con_circum,0.25,4,5,4,94,15,,,,4_con_circum_image_61.png,160.41466832156584,160.66633832918887,,,,,1,1,2024-10-13_00h55.46.358,visual,2024.1.5,121.00994953036302,
2_con_totaldot,0.25,2,5,5,95,7,,,,2_con_totaldot_image_43.png,160.77356886355847,161.02486316319846,,,,,1,1,2024-10-13_00h55.46.358,visual,2024.1.5,121.00994953036302,
4_con_singledot,0.25,4,5,6,96,3,,,,4_con_singledot_image_46.png,161.13108802957868,161.38221895419701,,,,,1,1,2024-10-13_00h55.46.358,visual,2024.1.5,121.00994953036302,
6_con_singledot,0.25,6,5,7,97,5,,,,6_con_singledot_image_14.png,161.49125886357797,161.7428376632015,,,,,1,1,2024-10-13_00h55.46.358,visual,2024.1.5,121.00994953036302,
2_con_circum,0.25,2,5,8,98,13,,,,2_con_circum_image_16.png,161.84908644658572,162.09951045420894,,,,,1,1,2024-10-13_00h55.46.358,visual,2024.1.5,121.00994953036302,
5_con_circum,0.25,5,5,9,99,16,,,,5_con_circum_image_25.png,162.206853613563,162.4588964542054,,,,,1,1,2024-10-13_00h55.46.358,visual,2024.1.5,121.00994953036302,
4_con_totaldot,0.25,4,5,10,100,9,,,,4_con_totaldot_image_25.png,162.56530123857374,162.81567703820474,,,,,1,1,2024-10-13_00h55.46.358,visual,2024.1.5,121.00994953036302,
3_con_totaldot,0.25,3,5,11,101,8,,,,3_con_totaldot_image_21.png,162.92361136358522,163.17525374620163,,,,,1,1,2024-10-13_00h55.46.358,visual,2024.1.5,121.00994953036302,
1_con_singledot,0.25,1,5,12,102,0,,,,1_con_singledot_image_59.png,163.28178690456843,163.53394312119053,,,,,1,1,2024-10-13_00h55.46.358,visual,2024.1.5,121.00994953036302,
3_con_singledot,0.25,3,5,13,103,2,,,,3_con_singledot_image_67.png,163.64040957156976,163.89147603818856,,,,,1,1,2024-10-13_00h55.46.358,visual,2024.1.5,121.00994953036302,
1_con_totaldot,0.25,1,5,14,104,6,,,,1_con_totaldot_image_30.png,163.99768777958525,164.24970616320206,,,,,1,1,2024-10-13_00h55.46.358,visual,2024.1.5,121.00994953036302,
6_con_totaldot,0.25,6,5,15,105,11,,,,6_con_totaldot_image_29.png,164.35692515458504,164.60886112118897,,,,,1,1,2024-10-13_00h55.46.358,visual,2024.1.5,121.00994953036302,
1_con_circum,0.25,1,5,16,106,12,,,,1_con_circum_image_2.png,164.71510548856168,164.96589137120463,,,,,1,1,2024-10-13_00h55.46.358,visual,2024.1.5,121.00994953036302,
5_con_singledot,0.25,5,5,17,107,4,,,,5_con_singledot_image_1.png,165.07379794657754,165.32486316321592,4.wav,165.4243657499901,2.mp4,165.4243657499901,1,1,2024-10-13_00h55.46.358,visual,2024.1.5,121.00994953036302,
2_con_totaldot,0.25,2,6,0,108,7,,,,2_con_totaldot_image_61.png,167.25455259537557,167.50832262121548,,,,,1,1,2024-10-13_00h55.46.358,visual,2024.1.5,121.00994953036302,
6_con_circum,0.25,6,6,1,109,17,,,,6_con_circum_image_28.png,167.61471123858064,167.86565757919743,,,,,1,1,2024-10-13_00h55.46.358,visual,2024.1.5,121.00994953036302,
4_con_totaldot,0.25,4,6,2,110,9,,,,4_con_totaldot_image_50.png,167.97448990457633,168.22525649621093,,,,,1,1,2024-10-13_00h55.46.358,visual,2024.1.5,121.00994953036302,
4_con_singledot,0.25,4,6,3,111,3,,,,4_con_singledot_image_66.png,168.33245148857532,168.58314657919982,,,,,1,1,2024-10-13_00h55.46.358,visual,2024.1.5,121.00994953036302,
5_con_singledot,0.25,5,6,4,112,4,,,,5_con_singledot_image_49.png,168.6903848215734,168.9416494132165,,,,,1,1,2024-10-13_00h55.46.358,visual,2024.1.5,121.00994953036302,
1_con_singledot,0.25,1,6,5,113,0,,,,1_con_singledot_image_19.png,169.04798657157517,169.29906612120976,,,,,1,1,2024-10-13_00h55.46.358,visual,2024.1.5,121.00994953036302,
5_con_totaldot,0.25,5,6,6,114,10,,,,5_con_totaldot_image_70.png,169.40727590456663,169.65833437121182,,,,,1,1,2024-10-13_00h55.46.358,visual,2024.1.5,121.00994953036302,
1_con_totaldot,0.25,1,6,7,115,6,,,,1_con_totaldot_image_18.png,169.76453677956306,170.01691962119367,,,,,1,1,2024-10-13_00h55.46.358,visual,2024.1.5,121.00994953036302,
2_con_singledot,0.25,2,6,8,116,1,,,,2_con_singledot_image_53.png,170.12505690458056,170.3756802042044,,,,,1,1,2024-10-13_00h55.46.358,visual,2024.1.5,121.00994953036302,
1_con_circum,0.25,1,6,9,117,12,,,,1_con_circum_image_56.png,170.48189615456795,170.7326195791975,,,,,1,1,2024-10-13_00h55.46.358,visual,2024.1.5,121.00994953036302,
2_con_circum,0.25,2,6,10,118,13,,,,2_con_circum_image_52.png,170.84103194657655,171.09237028819916,,,,,1,1,2024-10-13_00h55.46.358,visual,2024.1.5,121.00994953036302,
5_con_circum,0.25,5,6,11,119,16,,,,5_con_circum_image_24.png,171.198570988563,171.44927132919838,,,,,1,1,2024-10-13_00h55.46.358,visual,2024.1.5,121.00994953036302,
3_con_circum,0.25,3,6,12,120,14,,,,3_con_circum_image_60.png,171.55863015456998,171.80862574621278,,,,,1,1,2024-10-13_00h55.46.358,visual,2024.1.5,121.00994953036302,
6_con_singledot,0.25,6,6,13,121,5,,,,6_con_singledot_image_3.png,171.91490286357293,172.1662759962055,,,,,1,1,2024-10-13_00h55.46.358,visual,2024.1.5,121.00994953036302,
6_con_totaldot,0.25,6,6,14,122,11,,,,6_con_totaldot_image_40.png,172.27385690457595,172.52496207920194,,,,,1,1,2024-10-13_00h55.46.358,visual,2024.1.5,121.00994953036302,
3_con_singledot,0.25,3,6,15,123,2,,,,3_con_singledot_image_32.png,172.6313112795615,172.88267124620324,,,,,1,1,2024-10-13_00h55.46.358,visual,2024.1.5,121.00994953036302,
4_con_circum,0.25,4,6,16,124,15,,,,4_con_circum_image_59.png,172.99060594658658,173.24221337119525,,,,,1,1,2024-10-13_00h55.46.358,visual,2024.1.5,121.00994953036302,
3_con_totaldot,0.25,3,6,17,125,8,,,,3_con_totaldot_image_43.png,173.3483782385738,173.60083749621117,3.wav,173.7014209170011,4.mp4,173.7014209170011,1,1,2024-10-13_00h55.46.358,visual,2024.1.5,121.00994953036302,
4_con_singledot,0.25,4,7,0,126,3,,,,4_con_singledot_image_9.png,175.5307374703698,175.7821449132025,,,,,1,1,2024-10-13_00h55.46.358,visual,2024.1.5,121.00994953036302,
3_con_circum,0.25,3,7,1,127,14,,,,3_con_circum_image_12.png,175.89130498857412,176.14205978820974,,,,,1,1,2024-10-13_00h55.46.358,visual,2024.1.5,121.00994953036302,
5_con_totaldot,0.25,5,7,2,128,10,,,,5_con_totaldot_image_51.png,176.2484913215594,176.50001807919762,,,,,1,1,2024-10-13_00h55.46.358,visual,2024.1.5,121.00994953036302,
1_con_circum,0.25,1,7,3,129,12,,,,1_con_circum_image_30.png,176.60723298856465,176.85855337120302,,,,,1,1,2024-10-13_00h55.46.358,visual,2024.1.5,121.00994953036302,
6_con_totaldot,0.25,6,7,4,130,11,,,,6_con_totaldot_image_33.png,176.9647926135658,177.21599691318988,,,,,1,1,2024-10-13_00h55.46.358,visual,2024.1.5,121.00994953036302,
3_con_totaldot,0.25,3,7,5,131,8,,,,3_con_totaldot_image_45.png,177.3240215715632,177.576299913213,,,,,1,1,2024-10-13_00h55.46.358,visual,2024.1.5,121.00994953036302,
6_con_circum,0.25,6,7,6,132,17,,,,6_con_circum_image_54.png,177.68286144656304,177.93281287119316,,,,,1,1,2024-10-13_00h55.46.358,visual,2024.1.5,121.00994953036302,
5_con_singledot,0.25,5,7,7,133,4,,,,5_con_singledot_image_21.png,178.04060448856035,178.29182287120784,,,,,1,1,2024-10-13_00h55.46.358,visual,2024.1.5,121.00994953036302,
5_con_circum,0.25,5,7,8,134,16,,,,5_con_circum_image_18.png,178.39805752957182,178.650029704193,,,,,1,1,2024-10-13_00h55.46.358,visual,2024.1.5,121.00994953036302,
1_con_singledot,0.25,1,7,9,135,0,,,,1_con_singledot_image_62.png,178.75748465456127,179.00925603818905,,,,,1,1,2024-10-13_00h55.46.358,visual,2024.1.5,121.00994953036302,
2_con_circum,0.25,2,7,10,136,13,,,,2_con_circum_image_57.png,179.11556882156583,179.3668081631913,,,,,1,1,2024-10-13_00h55.46.358,visual,2024.1.5,121.00994953036302,
4_con_circum,0.25,4,7,11,137,15,,,,4_con_circum_image_20.png,179.473894654584,179.72514728819078,,,,,1,1,2024-10-13_00h55.46.358,visual,2024.1.5,121.00994953036302,
2_con_singledot,0.25,2,7,12,138,1,,,,2_con_singledot_image_50.png,179.83140636356256,180.08348645419755,,,,,1,1,2024-10-13_00h55.46.358,visual,2024.1.5,121.00994953036302,
6_con_singledot,0.25,6,7,13,139,5,,,,6_con_singledot_image_23.png,180.19099261357042,180.4432791631989,,,,,1,1,2024-10-13_00h55.46.358,visual,2024.1.5,121.00994953036302,
3_con_singledot,0.25,3,7,14,140,2,,,,3_con_singledot_image_52.png,180.54960561355983,180.79947674619325,,,,,1,1,2024-10-13_00h55.46.358,visual,2024.1.5,121.00994953036302,
1_con_totaldot,0.25,1,7,15,141,6,,,,1_con_totaldot_image_42.png,180.9083594885742,181.1587749961909,,,,,1,1,2024-10-13_00h55.46.358,visual,2024.1.5,121.00994953036302,
4_con_totaldot,0.25,4,7,16,142,9,,,,4_con_totaldot_image_33.png,181.2651694885717,181.5160169541923,,,,,1,1,2024-10-13_00h55.46.358,visual,2024.1.5,121.00994953036302,
2_con_totaldot,0.25,2,7,17,143,7,,,,2_con_totaldot_image_58.png,181.62393277957744,181.8759764541901,4.wav,181.97565658399253,12.mp4,181.97565658399253,1,1,2024-10-13_00h55.46.358,visual,2024.1.5,121.00994953036302,
2_con_singledot,0.25,2,8,0,144,1,,,,2_con_singledot_image_69.png,183.79990992837702,184.04996957919502,,,,,1,1,2024-10-13_00h55.46.358,visual,2024.1.5,121.00994953036302,
4_con_singledot,0.25,4,8,1,145,3,,,,4_con_singledot_image_4.png,184.1578339465632,184.40900707921537,,,,,1,1,2024-10-13_00h55.46.358,visual,2024.1.5,121.00994953036302,
2_con_circum,0.25,2,8,2,146,13,,,,2_con_circum_image_69.png,184.51542373858683,184.76624437120336,,,,,1,1,2024-10-13_00h55.46.358,visual,2024.1.5,121.00994953036302,
5_con_totaldot,0.25,5,8,3,147,10,,,,5_con_totaldot_image_12.png,184.87507686358003,185.12530474619416,,,,,1,1,2024-10-13_00h55.46.358,visual,2024.1.5,121.00994953036302,
3_con_circum,0.25,3,8,4,148,14,,,,3_con_circum_image_36.png,185.23157761358016,185.48330016319233,,,,,1,1,2024-10-13_00h55.46.358,visual,2024.1.5,121.00994953036302,
1_con_circum,0.25,1,8,5,149,12,,,,1_con_circum_image_26.png,185.591149113563,185.8427021631942,,,,,1,1,2024-10-13_00h55.46.358,visual,2024.1.5,121.00994953036302,
1_con_singledot,0.25,1,8,6,150,0,,,,1_con_singledot_image_39.png,185.94918132158637,186.19897341319302,,,,,1,1,2024-10-13_00h55.46.358,visual,2024.1.5,121.00994953036302,
3_con_singledot,0.25,3,8,7,151,2,,,,3_con_singledot_image_44.png,186.30819069656718,186.55942924619012,,,,,1,1,2024-10-13_00h55.46.358,visual,2024.1.5,121.00994953036302,
6_con_totaldot,0.25,6,8,8,152,11,,,,6_con_totaldot_image_55.png,186.665656363577,186.91612224619894,,,,,1,1,2024-10-13_00h55.46.358,visual,2024.1.5,121.00994953036302,
6_con_circum,0.25,6,8,9,153,17,,,,6_con_circum_image_47.png,187.02514073856582,187.27569262120232,,,,,1,1,2024-10-13_00h55.46.358,visual,2024.1.5,121.00994953036302,
6_con_singledot,0.25,6,8,10,154,5,,,,6_con_singledot_image_70.png,187.38128932156542,187.63303453820117,,,,,1,1,2024-10-13_00h55.46.358,visual,2024.1.5,121.00994953036302,
5_con_circum,0.25,5,8,11,155,16,,,,5_con_circum_image_29.png,187.7409336965793,187.99205262119358,,,,,1,1,2024-10-13_00h55.46.358,visual,2024.1.5,121.00994953036302,
4_con_circum,0.25,4,8,12,156,15,,,,4_con_circum_image_21.png,188.0982527795859,188.34986832919822,,,,,1,1,2024-10-13_00h55.46.358,visual,2024.1.5,121.00994953036302,
2_con_totaldot,0.25,2,8,13,157,7,,,,2_con_totaldot_image_54.png,188.45751373858366,188.70876349620812,,,,,1,1,2024-10-13_00h55.46.358,visual,2024.1.5,121.00994953036302,
5_con_singledot,0.25,5,8,14,158,4,,,,5_con_singledot_image_61.png,188.81512548857427,189.06621574620658,,,,,1,1,2024-10-13_00h55.46.358,visual,2024.1.5,121.00994953036302,
1_con_totaldot,0.25,1,8,15,159,6,,,,1_con_totaldot_image_70.png,189.17439365458267,189.4254304542119,,,,,1,1,2024-10-13_00h55.46.358,visual,2024.1.5,121.00994953036302,
4_con_totaldot,0.25,4,8,16,160,9,,,,4_con_totaldot_image_54.png,189.53160140458203,189.7826469962165,,,,,1,1,2024-10-13_00h55.46.358,visual,2024.1.5,121.00994953036302,
3_con_totaldot,0.25,3,8,17,161,8,,,,3_con_totaldot_image_4.png,189.89158444658096,190.14285824621038,5.wav,190.2423877090041,13.mp4,190.2423877090041,1,1,2024-10-13_00h55.46.358,visual,2024.1.5,121.00994953036302,
6_con_singledot,0.25,6,9,0,162,5,,,,6_con_singledot_image_53.png,192.09620676137274,192.35039807921567,,,,,1,1,2024-10-13_00h55.46.358,visual,2024.1.5,121.00994953036302,
4_con_totaldot,0.25,4,9,1,163,9,,,,4_con_totaldot_image_66.png,192.45754127956752,192.709468413188,,,,,1,1,2024-10-13_00h55.46.358,visual,2024.1.5,121.00994953036302,
2_con_circum,0.25,2,9,2,164,13,,,,2_con_circum_image_22.png,192.81574577956053,193.0663570792094,,,,,1,1,2024-10-13_00h55.46.358,visual,2024.1.5,121.00994953036302,
4_con_singledot,0.25,4,9,3,165,3,,,,4_con_singledot_image_26.png,193.1742471135658,193.4254717881995,,,,,1,1,2024-10-13_00h55.46.358,visual,2024.1.5,121.00994953036302,
3_con_singledot,0.25,3,9,4,166,2,,,,3_con_singledot_image_34.png,193.53183652956795,193.78299932919617,,,,,1,1,2024-10-13_00h55.46.358,visual,2024.1.5,121.00994953036302,
5_con_circum,0.25,5,9,5,167,16,,,,5_con_circum_image_4.png,193.89150386357505,194.14299624621344,,,,,1,1,2024-10-13_00h55.46.358,visual,2024.1.5,121.00994953036302,
4_con_circum,0.25,4,9,6,168,15,,,,4_con_circum_image_8.png,194.2491991965653,194.49988966320234,,,,,1,1,2024-10-13_00h55.46.358,visual,2024.1.5,121.00994953036302,
2_con_singledot,0.25,2,9,7,169,1,,,,2_con_singledot_image_61.png,194.60766848856292,194.86854978821066,,,,,1,1,2024-10-13_00h55.46.358,visual,2024.1.5,121.00994953036302,
1_con_singledot,0.25,1,9,8,170,0,,,,1_con_singledot_image_25.png,194.97844502957014,195.23365632920468,,,,,1,1,2024-10-13_00h55.46.358,visual,2024.1.5,121.00994953036302,
3_con_totaldot,0.25,3,9,9,171,8,,,,3_con_totaldot_image_18.png,195.34088686357427,195.59217916319903,,,,,1,1,2024-10-13_00h55.46.358,visual,2024.1.5,121.00994953036302,
6_con_totaldot,0.25,6,9,10,172,11,,,,6_con_totaldot_image_57.png,195.69844632157765,195.94975420420815,,,,,1,1,2024-10-13_00h55.46.358,visual,2024.1.5,121.00994953036302,
5_con_totaldot,0.25,5,9,11,173,10,,,,5_con_totaldot_image_23.png,196.0583856965677,196.30898741319834,,,,,1,1,2024-10-13_00h55.46.358,visual,2024.1.5,121.00994953036302,
2_con_totaldot,0.25,2,9,12,174,7,,,,2_con_totaldot_image_67.png,196.4153368635598,196.66633312120393,,,,,1,1,2024-10-13_00h55.46.358,visual,2024.1.5,121.00994953036302,
1_con_circum,0.25,1,9,13,175,12,,,,1_con_circum_image_66.png,196.7750427385763,197.0254584541981,,,,,1,1,2024-10-13_00h55.46.358,visual,2024.1.5,121.00994953036302,
6_con_circum,0.25,6,9,14,176,17,,,,6_con_circum_image_37.png,197.13170102956065,197.3837444131932,,,,,1,1,2024-10-13_00h55.46.358,visual,2024.1.5,121.00994953036302,
1_con_totaldot,0.25,1,9,15,177,6,,,,1_con_totaldot_image_46.png,197.4909084885585,197.74292737118958,,,,,1,1,2024-10-13_00h55.46.358,visual,2024.1.5,121.00994953036302,
5_con_singledot,0.25,5,9,16,178,4,,,,5_con_singledot_image_4.png,197.84919044656272,198.09974699620216,,,,,1,1,2024-10-13_00h55.46.358,visual,2024.1.5,121.00994953036302,
3_con_circum,0.25,3,9,17,179,14,,,,3_con_circum_image_27.png,198.20848040455894,198.4588299132156,2.wav,198.5583277500118,5.mp4,198.5583277500118,1,1,2024-10-13_00h55.46.358,visual,2024.1.5,121.00994953036302,
4_con_circum,0.25,4,10,0,180,15,,,,4_con_circum_image_62.png,200.3874312203552,200.6425639962108,,,,,1,1,2024-10-13_00h55.46.358,visual,2024.1.5,121.00994953036302,
6_con_circum,0.25,6,10,1,181,17,,,,6_con_circum_image_15.png,200.749495363576,200.9998497041961,,,,,1,1,2024-10-13_00h55.46.358,visual,2024.1.5,121.00994953036302,
1_con_singledot,0.25,1,10,2,182,0,,,,1_con_singledot_image_69.png,201.10836752956675,201.35923937118787,,,,,1,1,2024-10-13_00h55.46.358,visual,2024.1.5,121.00994953036302,
3_con_circum,0.25,3,10,3,183,14,,,,3_con_circum_image_35.png,201.46541865456675,201.71679687120195,,,,,1,1,2024-10-13_00h55.46.358,visual,2024.1.5,121.00994953036302,
2_con_circum,0.25,2,10,4,184,13,,,,2_con_circum_image_44.png,201.8244385295693,202.07573195420264,,,,,1,1,2024-10-13_00h55.46.358,visual,2024.1.5,121.00994953036302,
5_con_circum,0.25,5,10,5,185,16,,,,5_con_circum_image_66.png,202.18205344658054,202.43372170419025,,,,,1,1,2024-10-13_00h55.46.358,visual,2024.1.5,121.00994953036302,
5_con_singledot,0.25,5,10,6,186,4,,,,5_con_singledot_image_27.png,202.54116961358523,202.79298991321411,,,,,1,1,2024-10-13_00h55.46.358,visual,2024.1.5,121.00994953036302,
6_con_totaldot,0.25,6,10,7,187,11,,,,6_con_totaldot_image_67.png,202.89917398856778,203.15048499619297,,,,,1,1,2024-10-13_00h55.46.358,visual,2024.1.5,121.00994953036302,
4_con_totaldot,0.25,4,10,8,188,9,,,,4_con_totaldot_image_9.png,203.25776944657264,203.5093747041974,,,,,1,1,2024-10-13_00h55.46.358,visual,2024.1.5,121.00994953036302,
4_con_singledot,0.25,4,10,9,189,3,,,,4_con_singledot_image_22.png,203.61556940457376,203.86641916319786,,,,,1,1,2024-10-13_00h55.46.358,visual,2024.1.5,121.00994953036302,
1_con_totaldot,0.25,1,10,10,190,6,,,,1_con_totaldot_image_44.png,203.97528302956198,204.22576207919337,,,,,1,1,2024-10-13_00h55.46.358,visual,2024.1.5,121.00994953036302,
2_con_totaldot,0.25,2,10,11,191,7,,,,2_con_totaldot_image_37.png,204.33192602956842,204.5836267882114,,,,,1,1,2024-10-13_00h55.46.358,visual,2024.1.5,121.00994953036302,
3_con_singledot,0.25,3,10,12,192,2,,,,3_con_singledot_image_66.png,204.69130302958365,204.9430672882154,,,,,1,1,2024-10-13_00h55.46.358,visual,2024.1.5,121.00994953036302,
5_con_totaldot,0.25,5,10,13,193,10,,,,5_con_totaldot_image_63.png,205.0492838635837,205.3005872042122,,,,,1,1,2024-10-13_00h55.46.358,visual,2024.1.5,121.00994953036302,
1_con_circum,0.25,1,10,14,194,12,,,,1_con_circum_image_14.png,205.40790298856155,205.65903995420376,,,,,1,1,2024-10-13_00h55.46.358,visual,2024.1.5,121.00994953036302,
3_con_totaldot,0.25,3,10,15,195,8,,,,3_con_totaldot_image_5.png,205.76541444657778,206.01676603821397,,,,,1,1,2024-10-13_00h55.46.358,visual,2024.1.5,121.00994953036302,
2_con_singledot,0.25,2,10,16,196,1,,,,2_con_singledot_image_55.png,206.12483727956715,206.3765592881973,,,,,1,1,2024-10-13_00h55.46.358,visual,2024.1.5,121.00994953036302,
6_con_singledot,0.25,6,10,17,197,5,,,,6_con_singledot_image_49.png,206.48285719657724,206.73326003820694,5.wav,206.83546991701587,16.mp4,206.83546991701587,1,1,2024-10-13_00h55.46.358,visual,2024.1.5,121.00994953036302,
4_con_totaldot,0.25,4,11,0,198,9,,,,4_con_totaldot_image_52.png,208.67269688638044,208.92579228819523,,,,,1,1,2024-10-13_00h55.46.358,visual,2024.1.5,121.00994953036302,
6_con_totaldot,0.25,6,11,1,199,11,,,,6_con_totaldot_image_19.png,209.0321246545791,209.28329737119202,,,,,1,1,2024-10-13_00h55.46.358,visual,2024.1.5,121.00994953036302,
6_con_circum,0.25,6,11,2,200,17,,,,6_con_circum_image_38.png,209.39122657156258,209.64296249618928,,,,,1,1,2024-10-13_00h55.46.358,visual,2024.1.5,121.00994953036302,
3_con_singledot,0.25,3,11,3,201,2,,,,3_con_singledot_image_27.png,209.74927615457273,210.00011753819126,,,,,1,1,2024-10-13_00h55.46.358,visual,2024.1.5,121.00994953036302,
6_con_singledot,0.25,6,11,4,202,5,,,,6_con_singledot_image_56.png,210.10856611355848,210.35909174619883,,,,,1,1,2024-10-13_00h55.46.358,visual,2024.1.5,121.00994953036302,
1_con_circum,0.25,1,11,5,203,12,,,,1_con_circum_image_35.png,210.4653067385807,210.7168100382114,,,,,1,1,2024-10-13_00h55.46.358,visual,2024.1.5,121.00994953036302,
4_con_singledot,0.25,4,11,6,204,3,,,,4_con_singledot_image_23.png,210.8246188635676,211.0758747462096,,,,,1,1,2024-10-13_00h55.46.358,visual,2024.1.5,121.00994953036302,
2_con_totaldot,0.25,2,11,7,205,7,,,,2_con_totaldot_image_35.png,211.18144332156226,211.4349820792122,,,,,1,1,2024-10-13_00h55.46.358,visual,2024.1.5,121.00994953036302,
5_con_singledot,0.25,5,11,8,206,4,,,,5_con_singledot_image_34.png,211.54357282158162,211.79298045420728,,,,,1,1,2024-10-13_00h55.46.358,visual,2024.1.5,121.00994953036302,
4_con_circum,0.25,4,11,9,207,15,,,,4_con_circum_image_40.png,211.8991953215591,212.15032632921066,,,,,1,1,2024-10-13_00h55.46.358,visual,2024.1.5,121.00994953036302,
2_con_circum,0.25,2,11,10,208,13,,,,2_con_circum_image_54.png,212.2579865295702,212.51253766320588,,,,,1,1,2024-10-13_00h55.46.358,visual,2024.1.5,121.00994953036302,
3_con_totaldot,0.25,3,11,11,209,8,,,,3_con_totaldot_image_42.png,212.6257353215624,212.87594399620139,,,,,1,1,2024-10-13_00h55.46.358,visual,2024.1.5,121.00994953036302,
1_con_totaldot,0.25,1,11,12,210,6,,,,1_con_totaldot_image_11.png,212.98210669656692,213.23381874621555,,,,,1,1,2024-10-13_00h55.46.358,visual,2024.1.5,121.00994953036302,
5_con_circum,0.25,5,11,13,211,16,,,,5_con_circum_image_38.png,213.34139357156528,213.59332732918847,,,,,1,1,2024-10-13_00h55.46.358,visual,2024.1.5,121.00994953036302,
3_con_circum,0.25,3,11,14,212,14,,,,3_con_circum_image_52.png,213.6995666545845,213.95042599619774,,,,,1,1,2024-10-13_00h55.46.358,visual,2024.1.5,121.00994953036302,
1_con_singledot,0.25,1,11,15,213,0,,,,1_con_singledot_image_40.png,214.05815098858147,214.3095936211903,,,,,1,1,2024-10-13_00h55.46.358,visual,2024.1.5,121.00994953036302,
2_con_singledot,0.25,2,11,16,214,1,,,,2_con_singledot_image_62.png,214.4160196545854,214.66723907920823,,,,,1,1,2024-10-13_00h55.46.358,visual,2024.1.5,121.00994953036302,
5_con_totaldot,0.25,5,11,17,215,10,,,,5_con_totaldot_image_24.png,214.7750751135609,215.02608395418792,1.wav,215.1256577919994,4.mp4,215.1256577919994,1,1,2024-10-13_00h55.46.358,visual,2024.1.5,121.00994953036302,
2_con_totaldot,0.25,2,12,0,216,7,,,,2_con_totaldot_image_28.png,216.96028242836474,217.21707428821537,,,,,1,1,2024-10-13_00h55.46.358,visual,2024.1.5,121.00994953036302,
3_con_totaldot,0.25,3,12,1,217,8,,,,3_con_totaldot_image_1.png,217.3247127795621,217.57610603819194,,,,,1,1,2024-10-13_00h55.46.358,visual,2024.1.5,121.00994953036302,
6_con_totaldot,0.25,6,12,2,218,11,,,,6_con_totaldot_image_8.png,217.68240311356203,217.93335112118802,,,,,1,1,2024-10-13_00h55.46.358,visual,2024.1.5,121.00994953036302,
1_con_singledot,0.25,1,12,3,219,0,,,,1_con_singledot_image_4.png,218.04221719656198,218.29296457920282,,,,,1,1,2024-10-13_00h55.46.358,visual,2024.1.5,121.00994953036302,
5_con_totaldot,0.25,5,12,4,220,10,,,,5_con_totaldot_image_68.png,218.39951773856592,218.6512237042043,,,,,1,1,2024-10-13_00h55.46.358,visual,2024.1.5,121.00994953036302,
3_con_singledot,0.25,3,12,5,221,2,,,,3_con_singledot_image_64.png,218.75808261356724,219.01009882921062,,,,,1,1,2024-10-13_00h55.46.358,visual,2024.1.5,121.00994953036302,
5_con_circum,0.25,5,12,6,222,16,,,,5_con_circum_image_68.png,219.1163593215606,219.36697295420163,,,,,1,1,2024-10-13_00h55.46.358,visual,2024.1.5,121.00994953036302,
3_con_circum,0.25,3,12,7,223,14,,,,3_con_circum_image_41.png,219.47545444658317,219.72605066320102,,,,,1,1,2024-10-13_00h55.46.358,visual,2024.1.5,121.00994953036302,
4_con_totaldot,0.25,4,12,8,224,9,,,,4_con_totaldot_image_44.png,219.83249002958473,220.08417949620343,,,,,1,1,2024-10-13_00h55.46.358,visual,2024.1.5,121.00994953036302,
1_con_totaldot,0.25,1,12,9,225,6,,,,1_con_totaldot_image_47.png,220.19238569655863,220.4426910792099,,,,,1,1,2024-10-13_00h55.46.358,visual,2024.1.5,121.00994953036302,
6_con_singledot,0.25,6,12,10,226,5,,,,6_con_singledot_image_11.png,220.54898911358032,220.80237737119023,,,,,1,1,2024-10-13_00h55.46.358,visual,2024.1.5,121.00994953036302,
4_con_circum,0.25,4,12,11,227,15,,,,4_con_circum_image_3.png,220.91015798856097,221.15984182919783,,,,,1,1,2024-10-13_00h55.46.358,visual,2024.1.5,121.00994953036302,
2_con_singledot,0.25,2,12,12,228,1,,,,2_con_singledot_image_4.png,221.26615082156786,221.5172844542103,,,,,1,1,2024-10-13_00h55.46.358,visual,2024.1.5,121.00994953036302,
6_con_circum,0.25,6,12,13,229,17,,,,6_con_circum_image_19.png,221.62477294656856,221.87614207919978,,,,,1,1,2024-10-13_00h55.46.358,visual,2024.1.5,121.00994953036302,
1_con_circum,0.25,1,12,14,230,12,,,,1_con_circum_image_31.png,221.98232977958105,222.23381245420023,,,,,1,1,2024-10-13_00h55.46.358,visual,2024.1.5,121.00994953036302,
5_con_singledot,0.25,5,12,15,231,4,,,,5_con_singledot_image_31.png,222.3415346545662,222.59272628820327,,,,,1,1,2024-10-13_00h55.46.358,visual,2024.1.5,121.00994953036302,
2_con_circum,0.25,2,12,16,232,13,,,,2_con_circum_image_11.png,222.698913196582,222.95098082920595,,,,,1,1,2024-10-13_00h55.46.358,visual,2024.1.5,121.00994953036302,
4_con_singledot,0.25,4,12,17,233,3,,,,4_con_singledot_image_30.png,223.0586947795673,223.30972528819984,2.wav,223.40951916700578,3.mp4,223.40951916700578,1,1,2024-10-13_00h55.46.358,visual,2024.1.5,121.00994953036302,
6_con_singledot,0.25,6,13,0,234,5,,,,6_con_singledot_image_31.png,225.24705755338073,225.50109437121137,,,,,1,1,2024-10-13_00h55.46.358,visual,2024.1.5,121.00994953036302,
3_con_singledot,0.25,3,13,1,235,2,,,,3_con_singledot_image_17.png,225.60819607156736,225.85990816321282,,,,,1,1,2024-10-13_00h55.46.358,visual,2024.1.5,121.00994953036302,
3_con_circum,0.25,3,13,2,236,14,,,,3_con_circum_image_15.png,225.96613427957345,226.217180079213,,,,,1,1,2024-10-13_00h55.46.358,visual,2024.1.5,121.00994953036302,
6_con_totaldot,0.25,6,13,3,237,11,,,,6_con_totaldot_image_17.png,226.32510077957704,226.57632595421455,,,,,1,1,2024-10-13_00h55.46.358,visual,2024.1.5,121.00994953036302,
1_con_totaldot,0.25,1,13,4,238,6,,,,1_con_totaldot_image_43.png,226.68261386356608,226.9335663292004,,,,,1,1,2024-10-13_00h55.46.358,visual,2024.1.5,121.00994953036302,
1_con_circum,0.25,1,13,5,239,12,,,,1_con_circum_image_18.png,227.04234382156574,227.29352741320326,,,,,1,1,2024-10-13_00h55.46.358,visual,2024.1.5,121.00994953036302,
4_con_circum,0.25,4,13,6,240,15,,,,4_con_circum_image_28.png,227.3997061135742,227.65031799620192,,,,,1,1,2024-10-13_00h55.46.358,visual,2024.1.5,121.00994953036302,
5_con_singledot,0.25,5,13,7,241,4,,,,5_con_singledot_image_47.png,227.7595669465809,228.01015328821086,,,,,1,1,2024-10-13_00h55.46.358,visual,2024.1.5,121.00994953036302,
3_con_totaldot,0.25,3,13,8,242,8,,,,3_con_totaldot_image_47.png,228.11637098855863,228.36783728819864,,,,,1,1,2024-10-13_00h55.46.358,visual,2024.1.5,121.00994953036302,
5_con_circum,0.25,5,13,9,243,16,,,,5_con_circum_image_1.png,228.47501782157633,228.72644862120796,,,,,1,1,2024-10-13_00h55.46.358,visual,2024.1.5,121.00994953036302,
2_con_circum,0.25,2,13,10,244,13,,,,2_con_circum_image_3.png,228.83260786357278,229.08363132919476,,,,,1,1,2024-10-13_00h55.46.358,visual,2024.1.5,121.00994953036302,
5_con_totaldot,0.25,5,13,11,245,10,,,,5_con_totaldot_image_43.png,229.19241752957169,229.44287124621042,,,,,1,1,2024-10-13_00h55.46.358,visual,2024.1.5,121.00994953036302,
1_con_singledot,0.25,1,13,12,246,0,,,,1_con_singledot_image_55.png,229.5492611135851,229.80029291320534,,,,,1,1,2024-10-13_00h55.46.358,visual,2024.1.5,121.00994953036302,
6_con_circum,0.25,6,13,13,247,17,,,,6_con_circum_image_20.png,229.90903827956936,230.16024453820137,,,,,1,1,2024-10-13_00h55.46.358,visual,2024.1.5,121.00994953036302,
4_con_totaldot,0.25,4,13,14,248,9,,,,4_con_totaldot_image_40.png,230.26645690457372,230.5169993291929,,,,,1,1,2024-10-13_00h55.46.358,visual,2024.1.5,121.00994953036302,
4_con_singledot,0.25,4,13,15,249,3,,,,4_con_singledot_image_54.png,230.62605523857928,230.87620416319987,,,,,1,1,2024-10-13_00h55.46.358,visual,2024.1.5,121.00994953036302,
2_con_singledot,0.25,2,13,16,250,1,,,,2_con_singledot_image_29.png,230.9824261545873,231.23398157920747,,,,,1,1,2024-10-13_00h55.46.358,visual,2024.1.5,121.00994953036302,
2_con_totaldot,0.25,2,13,17,251,7,,,,2_con_totaldot_image_50.png,231.34193952956412,231.59316303821106,1.wav,231.6924802089925,2.mp4,231.6924802089925,1,1,2024-10-13_00h55.46.358,visual,2024.1.5,121.00994953036302,
3_con_singledot,0.25,3,14,0,252,2,,,,3_con_singledot_image_20.png,233.53875405335566,233.7929676631902,,,,,1,1,2024-10-13_00h55.46.358,visual,2024.1.5,121.00994953036302,
3_con_totaldot,0.25,3,14,1,253,8,,,,3_con_totaldot_image_68.png,233.89931873856403,234.15105428818788,,,,,1,1,2024-10-13_00h55.46.358,visual,2024.1.5,121.00994953036302,
2_con_singledot,0.25,2,14,2,254,1,,,,2_con_singledot_image_58.png,234.25853057157656,234.5104417042021,,,,,1,1,2024-10-13_00h55.46.358,visual,2024.1.5,121.00994953036302,
2_con_circum,0.25,2,14,3,255,13,,,,2_con_circum_image_13.png,234.61667919658066,234.86797320419282,,,,,1,1,2024-10-13_00h55.46.358,visual,2024.1.5,121.00994953036302,
4_con_totaldot,0.25,4,14,4,256,9,,,,4_con_totaldot_image_53.png,234.97507073856832,235.2264533291891,,,,,1,1,2024-10-13_00h55.46.358,visual,2024.1.5,121.00994953036302,
6_con_singledot,0.25,6,14,5,257,5,,,,6_con_singledot_image_38.png,235.3327278635843,235.5837856631988,,,,,1,1,2024-10-13_00h55.46.358,visual,2024.1.5,121.00994953036302,
3_con_circum,0.25,3,14,6,258,14,,,,3_con_circum_image_2.png,235.69254511357576,235.94312549619644,,,,,1,1,2024-10-13_00h55.46.358,visual,2024.1.5,121.00994953036302,
2_con_totaldot,0.25,2,14,7,259,7,,,,2_con_totaldot_image_63.png,236.04975294657925,236.301137371207,,,,,1,1,2024-10-13_00h55.46.358,visual,2024.1.5,121.00994953036302,
5_con_totaldot,0.25,5,14,8,260,10,,,,5_con_totaldot_image_2.png,236.40839586356014,236.65966641319392,,,,,1,1,2024-10-13_00h55.46.358,visual,2024.1.5,121.00994953036302,
4_con_circum,0.25,4,14,9,261,15,,,,4_con_circum_image_68.png,236.76585815458384,237.01715437120583,,,,,1,1,2024-10-13_00h55.46.358,visual,2024.1.5,121.00994953036302,
5_con_circum,0.25,5,14,10,262,16,,,,5_con_circum_image_10.png,237.12605115458427,237.37672166321136,,,,,1,1,2024-10-13_00h55.46.358,visual,2024.1.5,121.00994953036302,
1_con_totaldot,0.25,1,14,11,263,6,,,,1_con_totaldot_image_34.png,237.4864428635774,237.74332362120913,,,,,1,1,2024-10-13_00h55.46.358,visual,2024.1.5,121.00994953036302,
6_con_totaldot,0.25,6,14,12,264,11,,,,6_con_totaldot_image_59.png,237.84941294656892,238.10448537119373,,,,,1,1,2024-10-13_00h55.46.358,visual,2024.1.5,121.00994953036302,
1_con_singledot,0.25,1,14,13,265,0,,,,1_con_singledot_image_65.png,238.2114379885752,238.4675421212014,,,,,1,1,2024-10-13_00h55.46.358,visual,2024.1.5,121.00994953036302,
6_con_circum,0.25,6,14,14,266,17,,,,6_con_circum_image_24.png,238.57514761357743,238.82646532919898,,,,,1,1,2024-10-13_00h55.46.358,visual,2024.1.5,121.00994953036302,
5_con_singledot,0.25,5,14,15,267,4,,,,5_con_singledot_image_38.png,238.93304411358258,239.18389799619035,,,,,1,1,2024-10-13_00h55.46.358,visual,2024.1.5,121.00994953036302,
4_con_singledot,0.25,4,14,16,268,3,,,,4_con_singledot_image_11.png,239.29205936357903,239.54310128818906,,,,,1,1,2024-10-13_00h55.46.358,visual,2024.1.5,121.00994953036302,
1_con_circum,0.25,1,14,17,269,12,,,,1_con_circum_image_64.png,239.64928615458484,239.90125137120776,2.wav,240.00188070899458,12.mp4,240.00188070899458,1,1,2024-10-13_00h55.46.358,visual,2024.1.5,121.00994953036302,
6_con_singledot,0.25,6,15,0,270,5,,,,6_con_singledot_image_27.png,241.82316005337634,242.07691257919942,,,,,1,1,2024-10-13_00h55.46.358,visual,2024.1.5,121.00994953036302,
3_con_circum,0.25,3,15,1,271,14,,,,3_con_circum_image_32.png,242.18330944656918,242.43476470421592,,,,,1,1,2024-10-13_00h55.46.358,visual,2024.1.5,121.00994953036302,
6_con_totaldot,0.25,6,15,2,272,11,,,,6_con_totaldot_image_42.png,242.5420167385746,242.79342378820002,,,,,1,1,2024-10-13_00h55.46.358,visual,2024.1.5,121.00994953036302,
2_con_totaldot,0.25,2,15,3,273,7,,,,2_con_totaldot_image_66.png,242.899695279586,243.1515010382136,,,,,1,1,2024-10-13_00h55.46.358,visual,2024.1.5,121.00994953036302,
6_con_circum,0.25,6,15,4,274,17,,,,6_con_circum_image_43.png,243.25873773857893,243.51001182918844,,,,,1,1,2024-10-13_00h55.46.358,visual,2024.1.5,121.00994953036302,
5_con_circum,0.25,5,15,5,275,16,,,,5_con_circum_image_67.png,243.61570569656033,243.86748095419898,,,,,1,1,2024-10-13_00h55.46.358,visual,2024.1.5,121.00994953036302,
5_con_totaldot,0.25,5,15,6,276,10,,,,5_con_totaldot_image_60.png,243.97636277957645,244.2265732461965,,,,,1,1,2024-10-13_00h55.46.358,visual,2024.1.5,121.00994953036302,
5_con_singledot,0.25,5,15,7,277,4,,,,5_con_singledot_image_18.png,244.33284694656322,244.58430791318824,,,,,1,1,2024-10-13_00h55.46.358,visual,2024.1.5,121.00994953036302,
4_con_singledot,0.25,4,15,8,278,3,,,,4_con_singledot_image_56.png,244.69204265456938,244.94365916321112,,,,,1,1,2024-10-13_00h55.46.358,visual,2024.1.5,121.00994953036302,
1_con_circum,0.25,1,15,9,279,12,,,,1_con_circum_image_51.png,245.0500568215648,245.3014032041974,,,,,1,1,2024-10-13_00h55.46.358,visual,2024.1.5,121.00994953036302,
4_con_circum,0.25,4,15,10,280,15,,,,4_con_circum_image_6.png,245.40860682156926,245.66072557920415,,,,,1,1,2024-10-13_00h55.46.358,visual,2024.1.5,121.00994953036302,
3_con_singledot,0.25,3,15,11,281,2,,,,3_con_singledot_image_10.png,245.76688811356144,246.01726620418776,,,,,1,1,2024-10-13_00h55.46.358,visual,2024.1.5,121.00994953036302,
4_con_totaldot,0.25,4,15,12,282,9,,,,4_con_totaldot_image_12.png,246.12617207157018,246.3773491211905,,,,,1,1,2024-10-13_00h55.46.358,visual,2024.1.5,121.00994953036302,
2_con_circum,0.25,2,15,13,283,13,,,,2_con_circum_image_61.png,246.48352419656294,246.73431049620558,,,,,1,1,2024-10-13_00h55.46.358,visual,2024.1.5,121.00994953036302,
3_con_totaldot,0.25,3,15,14,284,8,,,,3_con_totaldot_image_50.png,246.84196357156907,247.09323674619372,,,,,1,1,2024-10-13_00h55.46.358,visual,2024.1.5,121.00994953036302,
1_con_singledot,0.25,1,15,15,285,0,,,,1_con_singledot_image_2.png,247.1994148215599,247.45095753819623,,,,,1,1,2024-10-13_00h55.46.358,visual,2024.1.5,121.00994953036302,
1_con_totaldot,0.25,1,15,16,286,6,,,,1_con_totaldot_image_68.png,247.55878965456213,247.80988903819525,,,,,1,1,2024-10-13_00h55.46.358,visual,2024.1.5,121.00994953036302,
2_con_singledot,0.25,2,15,17,287,1,,,,2_con_singledot_image_57.png,247.9161207385623,248.16813595419808,5.wav,248.2684978750185,4.mp4,248.2684978750185,1,1,2024-10-13_00h55.46.358,visual,2024.1.5,121.00994953036302,
1_con_singledot,0.25,1,16,0,288,0,,,,1_con_singledot_image_45.png,250.11477638635552,250.36806670420629,,,,,1,1,2024-10-13_00h55.46.358,visual,2024.1.5,121.00994953036302,
4_con_circum,0.25,4,16,1,289,15,,,,4_con_circum_image_34.png,250.47541652955988,250.72747441321553,,,,,1,1,2024-10-13_00h55.46.358,visual,2024.1.5,121.00994953036302,
1_con_totaldot,0.25,1,16,2,290,6,,,,1_con_totaldot_image_4.png,250.83375082157727,251.08505107920791,,,,,1,1,2024-10-13_00h55.46.358,visual,2024.1.5,121.00994953036302,
5_con_totaldot,0.25,5,16,3,291,10,,,,5_con_totaldot_image_67.png,251.19216386358312,251.44330037118925,,,,,1,1,2024-10-13_00h55.46.358,visual,2024.1.5,121.00994953036302,
2_con_singledot,0.25,2,16,4,292,1,,,,2_con_singledot_image_44.png,251.54954502957116,251.80084003820957,,,,,1,1,2024-10-13_00h55.46.358,visual,2024.1.5,121.00994953036302,
6_con_circum,0.25,6,16,5,293,17,,,,6_con_circum_image_50.png,251.90908344656054,252.1603986632108,,,,,1,1,2024-10-13_00h55.46.358,visual,2024.1.5,121.00994953036302,
4_con_singledot,0.25,4,16,6,294,3,,,,4_con_singledot_image_40.png,252.2666075295856,252.5181460382155,,,,,1,1,2024-10-13_00h55.46.358,visual,2024.1.5,121.00994953036302,
3_con_singledot,0.25,3,16,7,295,2,,,,3_con_singledot_image_65.png,252.6254136965872,252.8769893291901,,,,,1,1,2024-10-13_00h55.46.358,visual,2024.1.5,121.00994953036302,
3_con_totaldot,0.25,3,16,8,296,8,,,,3_con_totaldot_image_14.png,252.98317652956757,253.23436024620605,,,,,1,1,2024-10-13_00h55.46.358,visual,2024.1.5,121.00994953036302,
4_con_totaldot,0.25,4,16,9,297,9,,,,4_con_totaldot_image_39.png,253.34229002958455,253.59400953819568,,,,,1,1,2024-10-13_00h55.46.358,visual,2024.1.5,121.00994953036302,
5_con_singledot,0.25,5,16,10,298,4,,,,5_con_singledot_image_30.png,253.70033361356764,253.95079195419385,,,,,1,1,2024-10-13_00h55.46.358,visual,2024.1.5,121.00994953036302,
3_con_circum,0.25,3,16,11,299,14,,,,3_con_circum_image_66.png,254.05902665456233,254.3108209961938,,,,,1,1,2024-10-13_00h55.46.358,visual,2024.1.5,121.00994953036302,
6_con_singledot,0.25,6,16,12,300,5,,,,6_con_singledot_image_65.png,254.41715277956973,254.66822741318902,,,,,1,1,2024-10-13_00h55.46.358,visual,2024.1.5,121.00994953036302,
6_con_totaldot,0.25,6,16,13,301,11,,,,6_con_totaldot_image_44.png,254.77540469657106,255.0267956211901,,,,,1,1,2024-10-13_00h55.46.358,visual,2024.1.5,121.00994953036302,
2_con_totaldot,0.25,2,16,14,302,7,,,,2_con_totaldot_image_13.png,255.13317207158252,255.38419778821117,,,,,1,1,2024-10-13_00h55.46.358,visual,2024.1.5,121.00994953036302,
5_con_circum,0.25,5,16,15,303,16,,,,5_con_circum_image_39.png,255.4930435295828,255.74349320419424,,,,,1,1,2024-10-13_00h55.46.358,visual,2024.1.5,121.00994953036302,
1_con_circum,0.25,1,16,16,304,12,,,,1_con_circum_image_19.png,255.84967415458232,256.1009422461939,,,,,1,1,2024-10-13_00h55.46.358,visual,2024.1.5,121.00994953036302,
2_con_circum,0.25,2,16,17,305,13,,,,2_con_circum_image_38.png,256.2088621545845,256.4605752882053,5.wav,256.55993854199187,11.mp4,256.55993854199187,1,1,2024-10-13_00h55.46.358,visual,2024.1.5,121.00994953036302,
5_con_singledot,0.25,5,17,0,306,4,,,,5_con_singledot_image_64.png,258.4063206783612,258.66010162119346,,,,,1,1,2024-10-13_00h55.46.358,visual,2024.1.5,121.00994953036302,
6_con_totaldot,0.25,6,17,1,307,11,,,,6_con_totaldot_image_52.png,258.76652348857897,259.0175840382144,,,,,1,1,2024-10-13_00h55.46.358,visual,2024.1.5,121.00994953036302,
4_con_circum,0.25,4,17,2,308,15,,,,4_con_circum_image_65.png,259.1263177795772,259.3832275382156,,,,,1,1,2024-10-13_00h55.46.358,visual,2024.1.5,121.00994953036302,
6_con_singledot,0.25,6,17,3,309,5,,,,6_con_singledot_image_60.png,259.4945831545774,259.743907871205,,,,,1,1,2024-10-13_00h55.46.358,visual,2024.1.5,121.00994953036302,
1_con_totaldot,0.25,1,17,4,310,6,,,,1_con_totaldot_image_17.png,259.85066807158,260.1010239962052,,,,,1,1,2024-10-13_00h55.46.358,visual,2024.1.5,121.00994953036302,
5_con_circum,0.25,5,17,5,311,16,,,,5_con_circum_image_65.png,260.2089004045847,260.4602433291875,,,,,1,1,2024-10-13_00h55.46.358,visual,2024.1.5,121.00994953036302,
4_con_totaldot,0.25,4,17,6,312,9,,,,4_con_totaldot_image_24.png,260.56656082156405,260.81839495421445,,,,,1,1,2024-10-13_00h55.46.358,visual,2024.1.5,121.00994953036302,
5_con_totaldot,0.25,5,17,7,313,10,,,,5_con_totaldot_image_9.png,260.92574473856075,261.17693216320185,,,,,1,1,2024-10-13_00h55.46.358,visual,2024.1.5,121.00994953036302,
1_con_singledot,0.25,1,17,8,314,0,,,,1_con_singledot_image_3.png,261.2831991545827,261.5343282462127,,,,,1,1,2024-10-13_00h55.46.358,visual,2024.1.5,121.00994953036302,
1_con_circum,0.25,1,17,9,315,12,,,,1_con_circum_image_58.png,261.64347048856143,261.8935377882008,,,,,1,1,2024-10-13_00h55.46.358,visual,2024.1.5,121.00994953036302,
3_con_singledot,0.25,3,17,10,316,2,,,,3_con_singledot_image_13.png,262.00069798856566,262.25084816319577,,,,,1,1,2024-10-13_00h55.46.358,visual,2024.1.5,121.00994953036302,
4_con_singledot,0.25,4,17,11,317,3,,,,4_con_singledot_image_52.png,262.3592954045598,262.6102004962013,,,,,1,1,2024-10-13_00h55.46.358,visual,2024.1.5,121.00994953036302,
2_con_circum,0.25,2,17,12,318,13,,,,2_con_circum_image_49.png,262.7164767795621,262.96856687120453,,,,,1,1,2024-10-13_00h55.46.358,visual,2024.1.5,121.00994953036302,
2_con_singledot,0.25,2,17,13,319,1,,,,2_con_singledot_image_66.png,263.07655182156304,263.32774453821185,,,,,1,1,2024-10-13_00h55.46.358,visual,2024.1.5,121.00994953036302,
3_con_totaldot,0.25,3,17,14,320,8,,,,3_con_totaldot_image_22.png,263.4341499045695,263.6841776631918,,,,,1,1,2024-10-13_00h55.46.358,visual,2024.1.5,121.00994953036302,
6_con_circum,0.25,6,17,15,321,17,,,,6_con_circum_image_16.png,263.7930687385815,264.04383378820785,,,,,1,1,2024-10-13_00h55.46.358,visual,2024.1.5,121.00994953036302,
3_con_circum,0.25,3,17,16,322,14,,,,3_con_circum_image_11.png,264.1500297795719,264.40109774620214,,,,,1,1,2024-10-13_00h55.46.358,visual,2024.1.5,121.00994953036302,
2_con_totaldot,0.25,2,17,17,323,7,,,,2_con_totaldot_image_7.png,264.5092695295607,264.76020841319405,2.wav,264.8596245420049,3.mp4,264.8596245420049,1,1,2024-10-13_00h55.46.358,visual,2024.1.5,121.00994953036302,
5_con_circum,0.25,5,18,0,324,16,,,,5_con_circum_image_61.png,266.7109343033808,266.96075103820476,,,,,1,1,2024-10-13_00h55.46.358,visual,2024.1.5,121.00994953036302,
4_con_totaldot,0.25,4,18,1,325,9,,,,4_con_totaldot_image_22.png,267.0674936965661,267.3185399132053,,,,,1,1,2024-10-13_00h55.46.358,visual,2024.1.5,121.00994953036302,
5_con_singledot,0.25,5,18,2,326,4,,,,5_con_singledot_image_7.png,267.4262092795834,267.6772779541934,,,,,1,1,2024-10-13_00h55.46.358,visual,2024.1.5,121.00994953036302,
6_con_singledot,0.25,6,18,3,327,5,,,,6_con_singledot_image_32.png,267.7835223215661,268.03448241318983,,,,,1,1,2024-10-13_00h55.46.358,visual,2024.1.5,121.00994953036302,
3_con_totaldot,0.25,3,18,4,328,8,,,,3_con_totaldot_image_7.png,268.14316290458373,268.3936450792098,,,,,1,1,2024-10-13_00h55.46.358,visual,2024.1.5,121.00994953036302,
1_con_singledot,0.25,1,18,5,329,0,,,,1_con_singledot_image_48.png,268.49927357157867,268.75166870419343,,,,,1,1,2024-10-13_00h55.46.358,visual,2024.1.5,121.00994953036302,
6_con_circum,0.25,6,18,6,330,17,,,,6_con_circum_image_25.png,268.85921823857643,269.1105298712064,,,,,1,1,2024-10-13_00h55.46.358,visual,2024.1.5,121.00994953036302,
5_con_totaldot,0.25,5,18,7,331,10,,,,5_con_totaldot_image_66.png,269.2181619465846,269.4681072461972,,,,,1,1,2024-10-13_00h55.46.358,visual,2024.1.5,121.00994953036302,
2_con_singledot,0.25,2,18,8,332,1,,,,2_con_singledot_image_18.png,269.5757165715768,269.8269579541957,,,,,1,1,2024-10-13_00h55.46.358,visual,2024.1.5,121.00994953036302,
6_con_totaldot,0.25,6,18,9,333,11,,,,6_con_totaldot_image_27.png,269.93336065458425,270.18518437120656,,,,,1,1,2024-10-13_00h55.46.358,visual,2024.1.5,121.00994953036302,
4_con_circum,0.25,4,18,10,334,15,,,,4_con_circum_image_19.png,270.2925410295866,270.5436376212019,,,,,1,1,2024-10-13_00h55.46.358,visual,2024.1.5,121.00994953036302,
2_con_circum,0.25,2,18,11,335,13,,,,2_con_circum_image_45.png,270.6500369885616,270.9019248291879,,,,,1,1,2024-10-13_00h55.46.358,visual,2024.1.5,121.00994953036302,
3_con_singledot,0.25,3,18,12,336,2,,,,3_con_singledot_image_53.png,271.01001015458314,271.26100387120096,,,,,1,1,2024-10-13_00h55.46.358,visual,2024.1.5,121.00994953036302,
4_con_singledot,0.25,4,18,13,337,3,,,,4_con_singledot_image_32.png,271.3672290295799,271.617977246191,,,,,1,1,2024-10-13_00h55.46.358,visual,2024.1.5,121.00994953036302,
2_con_totaldot,0.25,2,18,14,338,7,,,,2_con_totaldot_image_24.png,271.7271863635833,271.97709141320956,,,,,1,1,2024-10-13_00h55.46.358,visual,2024.1.5,121.00994953036302,
1_con_totaldot,0.25,1,18,15,339,6,,,,1_con_totaldot_image_1.png,272.0832752795686,272.3346226631984,,,,,1,1,2024-10-13_00h55.46.358,visual,2024.1.5,121.00994953036302,
1_con_circum,0.25,1,18,16,340,12,,,,1_con_circum_image_3.png,272.44243073857797,272.69373782920593,,,,,1,1,2024-10-13_00h55.46.358,visual,2024.1.5,121.00994953036302,
3_con_circum,0.25,3,18,17,341,14,,,,3_con_circum_image_44.png,272.80003082157054,273.0515042042098,5.wav,273.1527310000092,4.mp4,273.1527310000092,1,1,2024-10-13_00h55.46.358,visual,2024.1.5,121.00994953036302,
2_con_circum,0.25,2,19,0,342,13,,,,2_con_circum_image_62.png,275.0179195533565,275.2672568292037,,,,,1,1,2024-10-13_00h55.46.358,visual,2024.1.5,121.00994953036302,
1_con_totaldot,0.25,1,19,1,343,6,,,,1_con_totaldot_image_56.png,275.3767579045816,275.6272180382075,,,,,1,1,2024-10-13_00h55.46.358,visual,2024.1.5,121.00994953036302,
4_con_circum,0.25,4,19,2,344,15,,,,4_con_circum_image_11.png,275.73343190456217,275.98458662121266,,,,,1,1,2024-10-13_00h55.46.358,visual,2024.1.5,121.00994953036302,
3_con_totaldot,0.25,3,19,3,345,8,,,,3_con_totaldot_image_6.png,276.0933929465682,276.3444492462004,,,,,1,1,2024-10-13_00h55.46.358,visual,2024.1.5,121.00994953036302,
6_con_singledot,0.25,6,19,4,346,5,,,,6_con_singledot_image_51.png,276.4508049045835,276.7013257462095,,,,,1,1,2024-10-13_00h55.46.358,visual,2024.1.5,121.00994953036302,
6_con_totaldot,0.25,6,19,5,347,11,,,,6_con_totaldot_image_1.png,276.8100221965724,277.06100391321525,,,,,1,1,2024-10-13_00h55.46.358,visual,2024.1.5,121.00994953036302,
5_con_totaldot,0.25,5,19,6,348,10,,,,5_con_totaldot_image_19.png,277.16730244657083,277.41802682921116,,,,,1,1,2024-10-13_00h55.46.358,visual,2024.1.5,121.00994953036302,
1_con_singledot,0.25,1,19,7,349,0,,,,1_con_singledot_image_67.png,277.52579932157823,277.7771621632128,,,,,1,1,2024-10-13_00h55.46.358,visual,2024.1.5,121.00994953036302,
3_con_singledot,0.25,3,19,8,350,2,,,,3_con_singledot_image_38.png,277.8826656135643,278.1346078291972,,,,,1,1,2024-10-13_00h55.46.358,visual,2024.1.5,121.00994953036302,
5_con_circum,0.25,5,19,9,351,16,,,,5_con_circum_image_53.png,278.24361798858445,278.4938098712155,,,,,1,1,2024-10-13_00h55.46.358,visual,2024.1.5,121.00994953036302,
4_con_singledot,0.25,4,19,10,352,3,,,,4_con_singledot_image_21.png,278.6000893215678,278.8511297461955,,,,,1,1,2024-10-13_00h55.46.358,visual,2024.1.5,121.00994953036302,
4_con_totaldot,0.25,4,19,11,353,9,,,,4_con_totaldot_image_67.png,278.9600714045664,279.2113049132022,,,,,1,1,2024-10-13_00h55.46.358,visual,2024.1.5,121.00994953036302,
6_con_circum,0.25,6,19,12,354,17,,,,6_con_circum_image_11.png,279.3176530715864,279.5681999542139,,,,,1,1,2024-10-13_00h55.46.358,visual,2024.1.5,121.00994953036302,
5_con_singledot,0.25,5,19,13,355,4,,,,5_con_singledot_image_2.png,279.6761746135744,279.9276123712043,,,,,1,1,2024-10-13_00h55.46.358,visual,2024.1.5,121.00994953036302,
2_con_singledot,0.25,2,19,14,356,1,,,,2_con_singledot_image_48.png,280.03378040458483,280.28552582919656,,,,,1,1,2024-10-13_00h55.46.358,visual,2024.1.5,121.00994953036302,
3_con_circum,0.25,3,19,15,357,14,,,,3_con_circum_image_1.png,280.3926951135654,280.64417066318856,,,,,1,1,2024-10-13_00h55.46.358,visual,2024.1.5,121.00994953036302,
1_con_circum,0.25,1,19,16,358,12,,,,1_con_circum_image_47.png,280.7507861545746,281.00217024619633,,,,,1,1,2024-10-13_00h55.46.358,visual,2024.1.5,121.00994953036302,
2_con_totaldot,0.25,2,19,17,359,7,,,,2_con_totaldot_image_10.png,281.1093127385684,281.3612707462016,3.wav,281.4606685000181,7.mp4,281.4606685000181,1,1,2024-10-13_00h55.46.358,visual,2024.1.5,121.00994953036302,
3_con_circum,0.25,3,20,0,360,14,,,,3_con_circum_image_7.png,283.285859720374,283.5444613291911,,,,,1,1,2024-10-13_00h55.46.358,visual,2024.1.5,121.00994953036302,
6_con_singledot,0.25,6,20,1,361,5,,,,6_con_singledot_image_5.png,283.6509228215873,283.9015211631922,,,,,1,1,2024-10-13_00h55.46.358,visual,2024.1.5,121.00994953036302,
2_con_totaldot,0.25,2,20,2,362,7,,,,2_con_totaldot_image_57.png,284.00961007156,284.2605978711945,,,,,1,1,2024-10-13_00h55.46.358,visual,2024.1.5,121.00994953036302,
2_con_circum,0.25,2,20,3,363,13,,,,2_con_circum_image_17.png,284.3668403215852,284.6185737881897,,,,,1,1,2024-10-13_00h55.46.358,visual,2024.1.5,121.00994953036302,
5_con_totaldot,0.25,5,20,4,364,10,,,,5_con_totaldot_image_14.png,284.7265266135655,284.9774527881964,,,,,1,1,2024-10-13_00h55.46.358,visual,2024.1.5,121.00994953036302,
6_con_circum,0.25,6,20,5,365,17,,,,6_con_circum_image_33.png,285.0836603635835,285.3351734542084,,,,,1,1,2024-10-13_00h55.46.358,visual,2024.1.5,121.00994953036302,
5_con_singledot,0.25,5,20,6,366,4,,,,5_con_singledot_image_51.png,285.44276007158624,285.6945950792142,,,,,1,1,2024-10-13_00h55.46.358,visual,2024.1.5,121.00994953036302,
3_con_singledot,0.25,3,20,7,367,2,,,,3_con_singledot_image_68.png,285.8008706965629,286.0515550382115,,,,,1,1,2024-10-13_00h55.46.358,visual,2024.1.5,121.00994953036302,
6_con_totaldot,0.25,6,20,8,368,11,,,,6_con_totaldot_image_4.png,286.1602430295752,286.4115310791967,,,,,1,1,2024-10-13_00h55.46.358,visual,2024.1.5,121.00994953036302,
1_con_totaldot,0.25,1,20,9,369,6,,,,1_con_totaldot_image_51.png,286.5177689045813,286.76841295418853,,,,,1,1,2024-10-13_00h55.46.358,visual,2024.1.5,121.00994953036302,
4_con_circum,0.25,4,20,10,370,15,,,,4_con_circum_image_52.png,286.8769382385799,287.1272345381876,,,,,1,1,2024-10-13_00h55.46.358,visual,2024.1.5,121.00994953036302,
2_con_singledot,0.25,2,20,11,371,1,,,,2_con_singledot_image_68.png,287.2334825715661,287.4856132042041,,,,,1,1,2024-10-13_00h55.46.358,visual,2024.1.5,121.00994953036302,
1_con_circum,0.25,1,20,12,372,12,,,,1_con_circum_image_27.png,287.5927575715614,287.84450895419286,,,,,1,1,2024-10-13_00h55.46.358,visual,2024.1.5,121.00994953036302,
5_con_circum,0.25,5,20,13,373,16,,,,5_con_circum_image_5.png,287.9508371135598,288.20155499620887,,,,,1,1,2024-10-13_00h55.46.358,visual,2024.1.5,121.00994953036302,
4_con_totaldot,0.25,4,20,14,374,9,,,,4_con_totaldot_image_35.png,288.30977711356536,288.56120737119636,,,,,1,1,2024-10-13_00h55.46.358,visual,2024.1.5,121.00994953036302,
3_con_totaldot,0.25,3,20,15,375,8,,,,3_con_totaldot_image_31.png,288.66701707158063,288.9182165381935,,,,,1,1,2024-10-13_00h55.46.358,visual,2024.1.5,121.00994953036302,
4_con_singledot,0.25,4,20,16,376,3,,,,4_con_singledot_image_12.png,289.0270108215773,289.2773627042043,,,,,1,1,2024-10-13_00h55.46.358,visual,2024.1.5,121.00994953036302,
1_con_singledot,0.25,1,20,17,377,0,,,,1_con_singledot_image_70.png,289.3830298215762,289.6356282041961,4.wav,289.73606670901063,1.mp4,289.73606670901063,1,1,2024-10-13_00h55.46.358,visual,2024.1.5,121.00994953036302,
2_con_totaldot,0.25,2,21,0,378,7,,,,2_con_totaldot_image_20.png,291.5866500113625,291.8356950382149,,,,,1,1,2024-10-13_00h55.46.358,visual,2024.1.5,121.00994953036302,
4_con_totaldot,0.25,4,21,1,379,9,,,,4_con_totaldot_image_62.png,291.94303319657047,292.19407207918994,,,,,1,1,2024-10-13_00h55.46.358,visual,2024.1.5,121.00994953036302,
4_con_singledot,0.25,4,21,2,380,3,,,,4_con_singledot_image_14.png,292.300359654575,292.5516135791986,,,,,1,1,2024-10-13_00h55.46.358,visual,2024.1.5,121.00994953036302,
6_con_totaldot,0.25,6,21,3,381,11,,,,6_con_totaldot_image_25.png,292.6603994045727,292.9107795792079,,,,,1,1,2024-10-13_00h55.46.358,visual,2024.1.5,121.00994953036302,
1_con_singledot,0.25,1,21,4,382,0,,,,1_con_singledot_image_43.png,293.0170556135854,293.2683166212082,,,,,1,1,2024-10-13_00h55.46.358,visual,2024.1.5,121.00994953036302,
6_con_circum,0.25,6,21,5,383,17,,,,6_con_circum_image_29.png,293.3767297385639,293.6283382462134,,,,,1,1,2024-10-13_00h55.46.358,visual,2024.1.5,121.00994953036302,
2_con_circum,0.25,2,21,6,384,13,,,,2_con_circum_image_43.png,293.7361329045816,293.98571766320674,,,,,1,1,2024-10-13_00h55.46.358,visual,2024.1.5,121.00994953036302,
1_con_totaldot,0.25,1,21,7,385,6,,,,1_con_totaldot_image_6.png,294.0929063635849,294.3450850792142,,,,,1,1,2024-10-13_00h55.46.358,visual,2024.1.5,121.00994953036302,
6_con_singledot,0.25,6,21,8,386,5,,,,6_con_singledot_image_29.png,294.45138761356066,294.7015974542155,,,,,1,1,2024-10-13_00h55.46.358,visual,2024.1.5,121.00994953036302,
2_con_singledot,0.25,2,21,9,387,1,,,,2_con_singledot_image_63.png,294.8106471135834,295.06089782920026,,,,,1,1,2024-10-13_00h55.46.358,visual,2024.1.5,121.00994953036302,
4_con_circum,0.25,4,21,10,388,15,,,,4_con_circum_image_15.png,295.16706990457897,295.4183746632043,,,,,1,1,2024-10-13_00h55.46.358,visual,2024.1.5,121.00994953036302,
3_con_circum,0.25,3,21,11,389,14,,,,3_con_circum_image_59.png,295.52703848858073,295.7775259541959,,,,,1,1,2024-10-13_00h55.46.358,visual,2024.1.5,121.00994953036302,
1_con_circum,0.25,1,21,12,390,12,,,,1_con_circum_image_13.png,295.8838651545666,296.1349636211962,,,,,1,1,2024-10-13_00h55.46.358,visual,2024.1.5,121.00994953036302,
5_con_singledot,0.25,5,21,13,391,4,,,,5_con_singledot_image_59.png,296.24373911357543,296.494947496205,,,,,1,1,2024-10-13_00h55.46.358,visual,2024.1.5,121.00994953036302,
5_con_totaldot,0.25,5,21,14,392,10,,,,5_con_totaldot_image_52.png,296.6012283635646,296.85211995420104,,,,,1,1,2024-10-13_00h55.46.358,visual,2024.1.5,121.00994953036302,
5_con_circum,0.25,5,21,15,393,16,,,,5_con_circum_image_32.png,296.96009082156525,297.2111644132092,,,,,1,1,2024-10-13_00h55.46.358,visual,2024.1.5,121.00994953036302,
3_con_singledot,0.25,3,21,16,394,2,,,,3_con_singledot_image_5.png,297.3173641545727,297.5686167882086,,,,,1,1,2024-10-13_00h55.46.358,visual,2024.1.5,121.00994953036302,
3_con_totaldot,0.25,3,21,17,395,8,,,,3_con_totaldot_image_49.png,297.6762726135639,297.9275412882125,5.wav,298.0271497500071,12.mp4,298.0271497500071,1,1,2024-10-13_00h55.46.358,visual,2024.1.5,121.00994953036302,
3_con_totaldot,0.25,3,22,0,396,8,,,,3_con_totaldot_image_66.png,299.8924093863752,300.14449762120785,,,,,1,1,2024-10-13_00h55.46.358,visual,2024.1.5,121.00994953036302,
3_con_circum,0.25,3,22,1,397,14,,,,3_con_circum_image_67.png,300.25087619658734,300.50178795419924,,,,,1,1,2024-10-13_00h55.46.358,visual,2024.1.5,121.00994953036302,
4_con_totaldot,0.25,4,22,2,398,9,,,,4_con_totaldot_image_11.png,300.609778988568,300.861044371195,,,,,1,1,2024-10-13_00h55.46.358,visual,2024.1.5,121.00994953036302,
3_con_singledot,0.25,3,22,3,399,2,,,,3_con_singledot_image_36.png,300.9673009885737,301.21880807921116,,,,,1,1,2024-10-13_00h55.46.358,visual,2024.1.5,121.00994953036302,
6_con_singledot,0.25,6,22,4,400,5,,,,6_con_singledot_image_52.png,301.3271630715608,301.5782025382068,,,,,1,1,2024-10-13_00h55.46.358,visual,2024.1.5,121.00994953036302,
1_con_singledot,0.25,1,22,5,401,0,,,,1_con_singledot_image_63.png,301.6845836965804,301.935209538191,,,,,1,1,2024-10-13_00h55.46.358,visual,2024.1.5,121.00994953036302,
5_con_circum,0.25,5,22,6,402,16,,,,5_con_circum_image_30.png,302.0432179465861,302.29475770420686,,,,,1,1,2024-10-13_00h55.46.358,visual,2024.1.5,121.00994953036302,
2_con_totaldot,0.25,2,22,7,403,7,,,,2_con_totaldot_image_59.png,302.4010016545799,302.6518489961891,,,,,1,1,2024-10-13_00h55.46.358,visual,2024.1.5,121.00994953036302,
1_con_circum,0.25,1,22,8,404,12,,,,1_con_circum_image_52.png,302.7610519045702,303.01108078820107,,,,,1,1,2024-10-13_00h55.46.358,visual,2024.1.5,121.00994953036302,
5_con_totaldot,0.25,5,22,9,405,10,,,,5_con_totaldot_image_31.png,303.11736257157463,303.36781995419005,,,,,1,1,2024-10-13_00h55.46.358,visual,2024.1.5,121.00994953036302,
2_con_circum,0.25,2,22,10,406,13,,,,2_con_circum_image_58.png,303.477301196559,303.72761524621455,,,,,1,1,2024-10-13_00h55.46.358,visual,2024.1.5,121.00994953036302,
4_con_circum,0.25,4,22,11,407,15,,,,4_con_circum_image_38.png,303.8340137385676,304.08623778821493,,,,,1,1,2024-10-13_00h55.46.358,visual,2024.1.5,121.00994953036302,
2_con_singledot,0.25,2,22,12,408,1,,,,2_con_singledot_image_6.png,304.19320927957597,304.4446107462136,,,,,1,1,2024-10-13_00h55.46.358,visual,2024.1.5,121.00994953036302,
6_con_totaldot,0.25,6,22,13,409,11,,,,6_con_totaldot_image_37.png,304.5507831135619,304.8020919542032,,,,,1,1,2024-10-13_00h55.46.358,visual,2024.1.5,121.00994953036302,
5_con_singledot,0.25,5,22,14,410,4,,,,5_con_singledot_image_22.png,304.90974977957376,305.16127482919546,,,,,1,1,2024-10-13_00h55.46.358,visual,2024.1.5,121.00994953036302,
1_con_totaldot,0.25,1,22,15,411,6,,,,1_con_totaldot_image_24.png,305.26748577957915,305.5191902881925,,,,,1,1,2024-10-13_00h55.46.358,visual,2024.1.5,121.00994953036302,
4_con_singledot,0.25,4,22,16,412,3,,,,4_con_singledot_image_69.png,305.6276311545662,305.8778142462106,,,,,1,1,2024-10-13_00h55.46.358,visual,2024.1.5,121.00994953036302,
6_con_circum,0.25,6,22,17,413,17,,,,6_con_circum_image_35.png,305.98398902958434,306.23516607920465,3.wav,306.3363691249979,11.mp4,306.3363691249979,1,1,2024-10-13_00h55.46.358,visual,2024.1.5,121.00994953036302,
1_con_singledot,0.25,1,23,0,414,0,,,,1_con_singledot_image_68.png,308.18779734536656,308.4452276631928,,,,,1,1,2024-10-13_00h55.46.358,visual,2024.1.5,121.00994953036302,
4_con_totaldot,0.25,4,23,1,415,9,,,,4_con_totaldot_image_65.png,308.5515463215852,308.8022606632003,,,,,1,1,2024-10-13_00h55.46.358,visual,2024.1.5,121.00994953036302,
6_con_singledot,0.25,6,23,2,416,5,,,,6_con_singledot_image_68.png,308.90988102958363,309.16118745419953,,,,,1,1,2024-10-13_00h55.46.358,visual,2024.1.5,121.00994953036302,
4_con_singledot,0.25,4,23,3,417,3,,,,4_con_singledot_image_70.png,309.2675043215713,309.5186712881987,,,,,1,1,2024-10-13_00h55.46.358,visual,2024.1.5,121.00994953036302,
2_con_circum,0.25,2,23,4,418,13,,,,2_con_circum_image_51.png,309.627641529587,309.8782263712055,,,,,1,1,2024-10-13_00h55.46.358,visual,2024.1.5,121.00994953036302,
3_con_totaldot,0.25,3,23,5,419,8,,,,3_con_totaldot_image_59.png,309.98441882156476,310.2352495792002,,,,,1,1,2024-10-13_00h55.46.358,visual,2024.1.5,121.00994953036302,
6_con_circum,0.25,6,23,6,420,17,,,,6_con_circum_image_23.png,310.3440398635721,310.594799454193,,,,,1,1,2024-10-13_00h55.46.358,visual,2024.1.5,121.00994953036302,
1_con_circum,0.25,1,23,7,421,12,,,,1_con_circum_image_37.png,310.7010271965846,310.9529082462104,,,,,1,1,2024-10-13_00h55.46.358,visual,2024.1.5,121.00994953036302,
5_con_circum,0.25,5,23,8,422,16,,,,5_con_circum_image_27.png,311.06075927957136,311.31133941320877,,,,,1,1,2024-10-13_00h55.46.358,visual,2024.1.5,121.00994953036302,
5_con_totaldot,0.25,5,23,9,423,10,,,,5_con_totaldot_image_55.png,311.4178156545822,311.66878907919454,,,,,1,1,2024-10-13_00h55.46.358,visual,2024.1.5,121.00994953036302,
3_con_singledot,0.25,3,23,10,424,2,,,,3_con_singledot_image_2.png,311.77767415456765,312.0284971631918,,,,,1,1,2024-10-13_00h55.46.358,visual,2024.1.5,121.00994953036302,
1_con_totaldot,0.25,1,23,11,425,6,,,,1_con_totaldot_image_67.png,312.1340409465629,312.3852903292136,,,,,1,1,2024-10-13_00h55.46.358,visual,2024.1.5,121.00994953036302,
2_con_totaldot,0.25,2,23,12,426,7,,,,2_con_totaldot_image_17.png,312.49406277957314,312.7447844962153,,,,,1,1,2024-10-13_00h55.46.358,visual,2024.1.5,121.00994953036302,
2_con_singledot,0.25,2,23,13,427,1,,,,2_con_singledot_image_9.png,312.85106340456696,313.1029246212129,,,,,1,1,2024-10-13_00h55.46.358,visual,2024.1.5,121.00994953036302,
4_con_circum,0.25,4,23,14,428,15,,,,4_con_circum_image_49.png,313.21160627958307,313.4611483292101,,,,,1,1,2024-10-13_00h55.46.358,visual,2024.1.5,121.00994953036302,
6_con_totaldot,0.25,6,23,15,429,11,,,,6_con_totaldot_image_35.png,313.5674083215854,313.81955216320057,,,,,1,1,2024-10-13_00h55.46.358,visual,2024.1.5,121.00994953036302,
3_con_circum,0.25,3,23,16,430,14,,,,3_con_circum_image_62.png,313.9266389465629,314.17807662118867,,,,,1,1,2024-10-13_00h55.46.358,visual,2024.1.5,121.00994953036302,
5_con_singledot,0.25,5,23,17,431,4,,,,5_con_singledot_image_26.png,314.2842405715637,314.53557295420615,2.wav,314.6364554169995,5.mp4,314.6364554169995,1,1,2024-10-13_00h55.46.358,visual,2024.1.5,121.00994953036302,
4_con_totaldot,0.25,4,24,0,432,9,,,,4_con_totaldot_image_1.png,316.4763151363586,316.7284323292115,,,,,1,1,2024-10-13_00h55.46.358,visual,2024.1.5,121.00994953036302,
2_con_totaldot,0.25,2,24,1,433,7,,,,2_con_totaldot_image_27.png,316.83471819658007,317.0856026212132,,,,,1,1,2024-10-13_00h55.46.358,visual,2024.1.5,121.00994953036302,
3_con_circum,0.25,3,24,2,434,14,,,,3_con_circum_image_57.png,317.1935312385758,317.44466899619147,,,,,1,1,2024-10-13_00h55.46.358,visual,2024.1.5,121.00994953036302,
4_con_singledot,0.25,4,24,3,435,3,,,,4_con_singledot_image_47.png,317.5509756545798,317.803066246197,,,,,1,1,2024-10-13_00h55.46.358,visual,2024.1.5,121.00994953036302,
2_con_circum,0.25,2,24,4,436,13,,,,2_con_circum_image_47.png,317.91145115457766,318.16172732920677,,,,,1,1,2024-10-13_00h55.46.358,visual,2024.1.5,121.00994953036302,
3_con_totaldot,0.25,3,24,5,437,8,,,,3_con_totaldot_image_16.png,318.26961761356506,318.5190271632018,,,,,1,1,2024-10-13_00h55.46.358,visual,2024.1.5,121.00994953036302,
2_con_singledot,0.25,2,24,6,438,1,,,,2_con_singledot_image_60.png,318.6268586135848,318.87808753819263,,,,,1,1,2024-10-13_00h55.46.358,visual,2024.1.5,121.00994953036302,
6_con_singledot,0.25,6,24,7,439,5,,,,6_con_singledot_image_46.png,318.9849829045852,319.2358218711888,,,,,1,1,2024-10-13_00h55.46.358,visual,2024.1.5,121.00994953036302,
4_con_circum,0.25,4,24,8,440,15,,,,4_con_circum_image_36.png,319.3433022385725,319.5953507881932,,,,,1,1,2024-10-13_00h55.46.358,visual,2024.1.5,121.00994953036302,
1_con_totaldot,0.25,1,24,9,441,6,,,,1_con_totaldot_image_48.png,319.7016944465722,319.952606371211,,,,,1,1,2024-10-13_00h55.46.358,visual,2024.1.5,121.00994953036302,
6_con_totaldot,0.25,6,24,10,442,11,,,,6_con_totaldot_image_32.png,320.06001969658246,320.31136332919414,,,,,1,1,2024-10-13_00h55.46.358,visual,2024.1.5,121.00994953036302,
5_con_circum,0.25,5,24,11,443,16,,,,5_con_circum_image_43.png,320.4177403215872,320.6690463292034,,,,,1,1,2024-10-13_00h55.46.358,visual,2024.1.5,121.00994953036302,
6_con_circum,0.25,6,24,12,444,17,,,,6_con_circum_image_44.png,320.7769641965715,321.0286277462001,,,,,1,1,2024-10-13_00h55.46.358,visual,2024.1.5,121.00994953036302,
5_con_totaldot,0.25,5,24,13,445,10,,,,5_con_totaldot_image_18.png,321.1347742795624,321.3862394961907,,,,,1,1,2024-10-13_00h55.46.358,visual,2024.1.5,121.00994953036302,
3_con_singledot,0.25,3,24,14,446,2,,,,3_con_singledot_image_29.png,321.4938055715611,321.74548641320143,,,,,1,1,2024-10-13_00h55.46.358,visual,2024.1.5,121.00994953036302,
1_con_circum,0.25,1,24,15,447,12,,,,1_con_circum_image_21.png,321.8516956135718,322.1020859962009,,,,,1,1,2024-10-13_00h55.46.358,visual,2024.1.5,121.00994953036302,
5_con_singledot,0.25,5,24,16,448,4,,,,5_con_singledot_image_58.png,322.21068069657485,322.46192645419796,,,,,1,1,2024-10-13_00h55.46.358,visual,2024.1.5,121.00994953036302,
1_con_singledot,0.25,1,24,17,449,0,,,,1_con_singledot_image_29.png,322.56810132156534,322.8195754542103,5.wav,322.9201053750003,2.mp4,322.9201053750003,1,1,2024-10-13_00h55.46.358,visual,2024.1.5,121.00994953036302,
5_con_circum,0.25,5,25,0,450,16,,,,5_con_circum_image_62.png,324.75691434537293,325.011880663209,,,,,1,1,2024-10-13_00h55.46.358,visual,2024.1.5,121.00994953036302,
2_con_singledot,0.25,2,25,1,451,1,,,,2_con_singledot_image_59.png,325.1182186135702,325.3691753292078,,,,,1,1,2024-10-13_00h55.46.358,visual,2024.1.5,121.00994953036302,
6_con_circum,0.25,6,25,2,452,17,,,,6_con_circum_image_10.png,325.4769391545706,325.72802545419836,,,,,1,1,2024-10-13_00h55.46.358,visual,2024.1.5,121.00994953036302,
1_con_circum,0.25,1,25,3,453,12,,,,1_con_circum_image_25.png,325.8342323635734,326.0865557461948,,,,,1,1,2024-10-13_00h55.46.358,visual,2024.1.5,121.00994953036302,
5_con_totaldot,0.25,5,25,4,454,10,,,,5_con_totaldot_image_44.png,326.19343390456925,326.4452056631999,,,,,1,1,2024-10-13_00h55.46.358,visual,2024.1.5,121.00994953036302,
2_con_totaldot,0.25,2,25,5,455,7,,,,2_con_totaldot_image_4.png,326.55080057158193,326.80214695421455,,,,,1,1,2024-10-13_00h55.46.358,visual,2024.1.5,121.00994953036302,
2_con_circum,0.25,2,25,6,456,13,,,,2_con_circum_image_67.png,326.9112666545698,327.16151341320074,,,,,1,1,2024-10-13_00h55.46.358,visual,2024.1.5,121.00994953036302,
3_con_singledot,0.25,3,25,7,457,2,,,,3_con_singledot_image_16.png,327.2671309045836,327.51898007919954,,,,,1,1,2024-10-13_00h55.46.358,visual,2024.1.5,121.00994953036302,
4_con_circum,0.25,4,25,8,458,15,,,,4_con_circum_image_31.png,327.6270440295775,327.8792682041967,,,,,1,1,2024-10-13_00h55.46.358,visual,2024.1.5,121.00994953036302,
1_con_totaldot,0.25,1,25,9,459,6,,,,1_con_totaldot_image_50.png,327.98688340456283,328.2451105791988,,,,,1,1,2024-10-13_00h55.46.358,visual,2024.1.5,121.00994953036302,
6_con_singledot,0.25,6,25,10,460,5,,,,6_con_singledot_image_35.png,328.3533453215641,328.6025111632043,,,,,1,1,2024-10-13_00h55.46.358,visual,2024.1.5,121.00994953036302,
3_con_circum,0.25,3,25,11,461,14,,,,3_con_circum_image_40.png,328.71023865455936,328.9616491212073,,,,,1,1,2024-10-13_00h55.46.358,visual,2024.1.5,121.00994953036302,
5_con_singledot,0.25,5,25,12,462,4,,,,5_con_singledot_image_45.png,329.06856694656017,329.3292509541934,,,,,1,1,2024-10-13_00h55.46.358,visual,2024.1.5,121.00994953036302,
1_con_singledot,0.25,1,25,13,463,0,,,,1_con_singledot_image_10.png,329.43596473858634,329.6856913711963,,,,,1,1,2024-10-13_00h55.46.358,visual,2024.1.5,121.00994953036302,
6_con_totaldot,0.25,6,25,14,464,11,,,,6_con_totaldot_image_70.png,329.794274904576,330.04499882920936,,,,,1,1,2024-10-13_00h55.46.358,visual,2024.1.5,121.00994953036302,
4_con_singledot,0.25,4,25,15,465,3,,,,4_con_singledot_image_51.png,330.1512277795846,330.40288957919984,,,,,1,1,2024-10-13_00h55.46.358,visual,2024.1.5,121.00994953036302,
3_con_totaldot,0.25,3,25,16,466,8,,,,3_con_totaldot_image_54.png,330.51030527956027,330.76153199620603,,,,,1,1,2024-10-13_00h55.46.358,visual,2024.1.5,121.00994953036302,
4_con_totaldot,0.25,4,25,17,467,9,,,,4_con_totaldot_image_20.png,330.8676880715793,331.11910849619017,3.wav,331.22049162499025,1.mp4,331.22049162499025,1,1,2024-10-13_00h55.46.358,visual,2024.1.5,121.00994953036302,
2_con_circum,0.25,2,26,0,468,13,,,,2_con_circum_image_29.png,333.05822697037365,333.3115172881953,,,,,1,1,2024-10-13_00h55.46.358,visual,2024.1.5,121.00994953036302,
4_con_singledot,0.25,4,26,1,469,3,,,,4_con_singledot_image_61.png,333.41801694656897,333.6689962461969,,,,,1,1,2024-10-13_00h55.46.358,visual,2024.1.5,121.00994953036302,
6_con_singledot,0.25,6,26,2,470,5,,,,6_con_singledot_image_37.png,333.77773844655894,334.0288396212127,,,,,1,1,2024-10-13_00h55.46.358,visual,2024.1.5,121.00994953036302,
2_con_totaldot,0.25,2,26,3,471,7,,,,2_con_totaldot_image_3.png,334.135943071582,334.3860180381889,,,,,1,1,2024-10-13_00h55.46.358,visual,2024.1.5,121.00994953036302,
3_con_singledot,0.25,3,26,4,472,2,,,,3_con_singledot_image_21.png,334.4938261135685,334.7448601632059,,,,,1,1,2024-10-13_00h55.46.358,visual,2024.1.5,121.00994953036302,
4_con_circum,0.25,4,26,5,473,15,,,,4_con_circum_image_45.png,334.85125515457185,335.10566999619186,,,,,1,1,2024-10-13_00h55.46.358,visual,2024.1.5,121.00994953036302,
4_con_totaldot,0.25,4,26,6,474,9,,,,4_con_totaldot_image_41.png,335.2127111545851,335.46179991318786,,,,,1,1,2024-10-13_00h55.46.358,visual,2024.1.5,121.00994953036302,
6_con_circum,0.25,6,26,7,475,17,,,,6_con_circum_image_67.png,335.56819977956184,335.8193953712034,,,,,1,1,2024-10-13_00h55.46.358,visual,2024.1.5,121.00994953036302,
2_con_singledot,0.25,2,26,8,476,1,,,,2_con_singledot_image_46.png,335.92787419656815,336.17822016320133,,,,,1,1,2024-10-13_00h55.46.358,visual,2024.1.5,121.00994953036302,
5_con_totaldot,0.25,5,26,9,477,10,,,,5_con_totaldot_image_20.png,336.2845123635634,336.5356755792018,,,,,1,1,2024-10-13_00h55.46.358,visual,2024.1.5,121.00994953036302,
1_con_circum,0.25,1,26,10,478,12,,,,1_con_circum_image_42.png,336.6448616965645,336.89558128819044,,,,,1,1,2024-10-13_00h55.46.358,visual,2024.1.5,121.00994953036302,
1_con_singledot,0.25,1,26,11,479,0,,,,1_con_singledot_image_51.png,337.0017020295636,337.2529594962107,,,,,1,1,2024-10-13_00h55.46.358,visual,2024.1.5,121.00994953036302,
3_con_totaldot,0.25,3,26,12,480,8,,,,3_con_totaldot_image_28.png,337.3614664045599,337.6115311212052,,,,,1,1,2024-10-13_00h55.46.358,visual,2024.1.5,121.00994953036302,
5_con_singledot,0.25,5,26,13,481,4,,,,5_con_singledot_image_43.png,337.7177893215703,337.96904403819644,,,,,1,1,2024-10-13_00h55.46.358,visual,2024.1.5,121.00994953036302,
3_con_circum,0.25,3,26,14,482,14,,,,3_con_circum_image_61.png,338.076968363559,338.3285299962008,,,,,1,1,2024-10-13_00h55.46.358,visual,2024.1.5,121.00994953036302,
5_con_circum,0.25,5,26,15,483,16,,,,5_con_circum_image_15.png,338.4347249465791,338.6864304962073,,,,,1,1,2024-10-13_00h55.46.358,visual,2024.1.5,121.00994953036302,
1_con_totaldot,0.25,1,26,16,484,6,,,,1_con_totaldot_image_35.png,338.79462007158145,339.0449627041962,,,,,1,1,2024-10-13_00h55.46.358,visual,2024.1.5,121.00994953036302,
6_con_totaldot,0.25,6,26,17,485,11,,,,6_con_totaldot_image_3.png,339.15114348857605,339.40323203821026,3.wav,339.503641584015,13.mp4,339.503641584015,1,1,2024-10-13_00h55.46.358,visual,2024.1.5,121.00994953036302,
6_con_totaldot,0.25,6,27,0,486,11,,,,6_con_totaldot_image_28.png,341.34306272037793,341.59520566319406,,,,,1,1,2024-10-13_00h55.46.358,visual,2024.1.5,121.00994953036302,
1_con_totaldot,0.25,1,27,1,487,6,,,,1_con_totaldot_image_54.png,341.7016796135722,341.9530577041878,,,,,1,1,2024-10-13_00h55.46.358,visual,2024.1.5,121.00994953036302,
4_con_circum,0.25,4,27,2,488,15,,,,4_con_circum_image_53.png,342.0605185295717,342.3117561632098,,,,,1,1,2024-10-13_00h55.46.358,visual,2024.1.5,121.00994953036302,
5_con_singledot,0.25,5,27,3,489,4,,,,5_con_singledot_image_52.png,342.4180955715856,342.6692487042019,,,,,1,1,2024-10-13_00h55.46.358,visual,2024.1.5,121.00994953036302,
2_con_totaldot,0.25,2,27,4,490,7,,,,2_con_totaldot_image_30.png,342.77710411358566,343.02836478820245,,,,,1,1,2024-10-13_00h55.46.358,visual,2024.1.5,121.00994953036302,
3_con_circum,0.25,3,27,5,491,14,,,,3_con_circum_image_24.png,343.13464115456736,343.3860028291965,,,,,1,1,2024-10-13_00h55.46.358,visual,2024.1.5,121.00994953036302,
2_con_circum,0.25,2,27,6,492,13,,,,2_con_circum_image_26.png,343.4949100715603,343.745986996204,,,,,1,1,2024-10-13_00h55.46.358,visual,2024.1.5,121.00994953036302,
5_con_circum,0.25,5,27,7,493,16,,,,5_con_circum_image_58.png,343.8522041965771,344.102618538207,,,,,1,1,2024-10-13_00h55.46.358,visual,2024.1.5,121.00994953036302,
3_con_totaldot,0.25,3,27,8,494,8,,,,3_con_totaldot_image_40.png,344.21123473857006,344.4617519132007,,,,,1,1,2024-10-13_00h55.46.358,visual,2024.1.5,121.00994953036302,
1_con_singledot,0.25,1,27,9,495,0,,,,1_con_singledot_image_52.png,344.5682611135853,344.82156599620066,,,,,1,1,2024-10-13_00h55.46.358,visual,2024.1.5,121.00994953036302,
4_con_totaldot,0.25,4,27,10,496,9,,,,4_con_totaldot_image_13.png,344.92959632158454,345.18584920420835,,,,,1,1,2024-10-13_00h55.46.358,visual,2024.1.5,121.00994953036302,
2_con_singledot,0.25,2,27,11,497,1,,,,2_con_singledot_image_43.png,345.294863779578,345.5451582461974,,,,,1,1,2024-10-13_00h55.46.358,visual,2024.1.5,121.00994953036302,
6_con_circum,0.25,6,27,12,498,17,,,,6_con_circum_image_22.png,345.651635488568,345.9030941212113,,,,,1,1,2024-10-13_00h55.46.358,visual,2024.1.5,121.00994953036302,
3_con_singledot,0.25,3,27,13,499,2,,,,3_con_singledot_image_62.png,346.01073840456957,346.26178145418817,,,,,1,1,2024-10-13_00h55.46.358,visual,2024.1.5,121.00994953036302,
1_con_circum,0.25,1,27,14,500,12,,,,1_con_circum_image_39.png,346.3679821135738,346.6199139132077,,,,,1,1,2024-10-13_00h55.46.358,visual,2024.1.5,121.00994953036302,
5_con_totaldot,0.25,5,27,15,501,10,,,,5_con_totaldot_image_62.png,346.72736665456614,346.9792260381946,,,,,1,1,2024-10-13_00h55.46.358,visual,2024.1.5,121.00994953036302,
6_con_singledot,0.25,6,27,16,502,5,,,,6_con_singledot_image_30.png,347.08580644657195,347.3363375381887,,,,,1,1,2024-10-13_00h55.46.358,visual,2024.1.5,121.00994953036302,
4_con_singledot,0.25,4,27,17,503,3,,,,4_con_singledot_image_3.png,347.4440296135872,347.69524887121224,1.wav,347.7946935420041,3.mp4,347.7946935420041,1,1,2024-10-13_00h55.46.358,visual,2024.1.5,121.00994953036302,
2_con_totaldot,0.25,2,28,0,504,7,,,,2_con_totaldot_image_42.png,349.6298252613633,349.88607974619663,,,,,1,1,2024-10-13_00h55.46.358,visual,2024.1.5,121.00994953036302,
1_con_circum,0.25,1,28,1,505,12,,,,1_con_circum_image_40.png,349.99486886356317,350.24522407918994,,,,,1,1,2024-10-13_00h55.46.358,visual,2024.1.5,121.00994953036302,
5_con_totaldot,0.25,5,28,2,506,10,,,,5_con_totaldot_image_61.png,350.3514801965648,350.6032511211961,,,,,1,1,2024-10-13_00h55.46.358,visual,2024.1.5,121.00994953036302,
1_con_totaldot,0.25,1,28,3,507,6,,,,1_con_totaldot_image_31.png,350.71133148857916,350.9623899131984,,,,,1,1,2024-10-13_00h55.46.358,visual,2024.1.5,121.00994953036302,
6_con_singledot,0.25,6,28,4,508,5,,,,6_con_singledot_image_4.png,351.0686821135605,351.3200449542055,,,,,1,1,2024-10-13_00h55.46.358,visual,2024.1.5,121.00994953036302,
2_con_singledot,0.25,2,28,5,509,1,,,,2_con_singledot_image_21.png,351.42724686356087,351.67857749619,,,,,1,1,2024-10-13_00h55.46.358,visual,2024.1.5,121.00994953036302,
4_con_circum,0.25,4,28,6,510,15,,,,4_con_circum_image_41.png,351.78478432157135,352.0359348291968,,,,,1,1,2024-10-13_00h55.46.358,visual,2024.1.5,121.00994953036302,
5_con_circum,0.25,5,28,7,511,16,,,,5_con_circum_image_6.png,352.1440031965758,352.39603641319263,,,,,1,1,2024-10-13_00h55.46.358,visual,2024.1.5,121.00994953036302,
3_con_circum,0.25,3,28,8,512,14,,,,3_con_circum_image_68.png,352.50232952956867,352.7527186632069,,,,,1,1,2024-10-13_00h55.46.358,visual,2024.1.5,121.00994953036302,
4_con_totaldot,0.25,4,28,9,513,9,,,,4_con_totaldot_image_37.png,352.86145032157947,353.1119795791892,,,,,1,1,2024-10-13_00h55.46.358,visual,2024.1.5,121.00994953036302,
4_con_singledot,0.25,4,28,10,514,3,,,,4_con_singledot_image_39.png,353.2181533215771,353.4719289131899,,,,,1,1,2024-10-13_00h55.46.358,visual,2024.1.5,121.00994953036302,
6_con_circum,0.25,6,28,11,515,17,,,,6_con_circum_image_56.png,353.57992582158477,353.8292025381961,,,,,1,1,2024-10-13_00h55.46.358,visual,2024.1.5,121.00994953036302,
3_con_totaldot,0.25,3,28,12,516,8,,,,3_con_totaldot_image_2.png,353.93538844656723,354.18607312119275,,,,,1,1,2024-10-13_00h55.46.358,visual,2024.1.5,121.00994953036302,
5_con_singledot,0.25,5,28,13,517,4,,,,5_con_singledot_image_55.png,354.2951413635601,354.5461519961973,,,,,1,1,2024-10-13_00h55.46.358,visual,2024.1.5,121.00994953036302,
3_con_singledot,0.25,3,28,14,518,2,,,,3_con_singledot_image_8.png,354.6523390715738,354.90271128820314,,,,,1,1,2024-10-13_00h55.46.358,visual,2024.1.5,121.00994953036302,
1_con_singledot,0.25,1,28,15,519,0,,,,1_con_singledot_image_24.png,355.0110141965706,355.2623365381878,,,,,1,1,2024-10-13_00h55.46.358,visual,2024.1.5,121.00994953036302,
6_con_totaldot,0.25,6,28,16,520,11,,,,6_con_totaldot_image_20.png,355.37801044656953,355.6285378291941,,,,,1,1,2024-10-13_00h55.46.358,visual,2024.1.5,121.00994953036302,
2_con_circum,0.25,2,28,17,521,13,,,,2_con_circum_image_2.png,355.7348876135802,355.98669353821606,4.wav,356.0873009170173,11.mp4,356.0873009170173,1,1,2024-10-13_00h55.46.358,visual,2024.1.5,121.00994953036302,
4_con_singledot,0.25,4,29,0,522,3,,,,4_con_singledot_image_28.png,357.9117720113718,358.16198820421414,,,,,1,1,2024-10-13_00h55.46.358,visual,2024.1.5,121.00994953036302,
2_con_circum,0.25,2,29,1,523,13,,,,2_con_circum_image_31.png,358.2684570715792,358.51947632919473,,,,,1,1,2024-10-13_00h55.46.358,visual,2024.1.5,121.00994953036302,
2_con_singledot,0.25,2,29,2,524,1,,,,2_con_singledot_image_39.png,358.62736211357696,358.8786807042052,,,,,1,1,2024-10-13_00h55.46.358,visual,2024.1.5,121.00994953036302,
6_con_totaldot,0.25,6,29,3,525,11,,,,6_con_totaldot_image_38.png,358.9849224045611,359.23636824621644,,,,,1,1,2024-10-13_00h55.46.358,visual,2024.1.5,121.00994953036302,
3_con_circum,0.25,3,29,4,526,14,,,,3_con_circum_image_8.png,359.3441915295698,359.59538270421035,,,,,1,1,2024-10-13_00h55.46.358,visual,2024.1.5,121.00994953036302,
5_con_singledot,0.25,5,29,5,527,4,,,,5_con_singledot_image_3.png,359.7017384045612,359.9528036631964,,,,,1,1,2024-10-13_00h55.46.358,visual,2024.1.5,121.00994953036302,
2_con_totaldot,0.25,2,29,6,528,7,,,,2_con_totaldot_image_2.png,360.0615479465778,360.3120352882106,,,,,1,1,2024-10-13_00h55.46.358,visual,2024.1.5,121.00994953036302,
5_con_totaldot,0.25,5,29,7,529,10,,,,5_con_totaldot_image_54.png,360.41861257156415,360.66997657921456,,,,,1,1,2024-10-13_00h55.46.358,visual,2024.1.5,121.00994953036302,
3_con_singledot,0.25,3,29,8,530,2,,,,3_con_singledot_image_61.png,360.7776667385624,361.0294792881905,,,,,1,1,2024-10-13_00h55.46.358,visual,2024.1.5,121.00994953036302,
1_con_totaldot,0.25,1,29,9,531,6,,,,1_con_totaldot_image_38.png,361.13575069657236,361.38545582919323,,,,,1,1,2024-10-13_00h55.46.358,visual,2024.1.5,121.00994953036302,
3_con_totaldot,0.25,3,29,10,532,8,,,,3_con_totaldot_image_44.png,361.4944488635665,361.74537382919516,,,,,1,1,2024-10-13_00h55.46.358,visual,2024.1.5,121.00994953036302,
6_con_circum,0.25,6,29,11,533,17,,,,6_con_circum_image_21.png,361.85166990458674,362.10307591319724,,,,,1,1,2024-10-13_00h55.46.358,visual,2024.1.5,121.00994953036302,
6_con_singledot,0.25,6,29,12,534,5,,,,6_con_singledot_image_25.png,362.2118359045853,362.46265770420723,,,,,1,1,2024-10-13_00h55.46.358,visual,2024.1.5,121.00994953036302,
1_con_singledot,0.25,1,29,13,535,0,,,,1_con_singledot_image_34.png,362.56897248855967,362.8195746631973,,,,,1,1,2024-10-13_00h55.46.358,visual,2024.1.5,121.00994953036302,
4_con_totaldot,0.25,4,29,14,536,9,,,,4_con_totaldot_image_5.png,362.9283745295688,363.1786927041976,,,,,1,1,2024-10-13_00h55.46.358,visual,2024.1.5,121.00994953036302,
4_con_circum,0.25,4,29,15,537,15,,,,4_con_circum_image_9.png,363.2847286135802,363.5362507042155,,,,,1,1,2024-10-13_00h55.46.358,visual,2024.1.5,121.00994953036302,
1_con_circum,0.25,1,29,16,538,12,,,,1_con_circum_image_28.png,363.6442720715859,363.89541787120106,,,,,1,1,2024-10-13_00h55.46.358,visual,2024.1.5,121.00994953036302,
5_con_circum,0.25,5,29,17,539,16,,,,5_con_circum_image_16.png,364.0017228215729,364.2535385381925,1.wav,364.35420016699936,12.mp4,364.35420016699936,1,1,2024-10-13_00h55.46.358,visual,2024.1.5,121.00994953036302,
5_con_singledot,0.25,5,30,0,540,4,,,,5_con_singledot_image_10.png,366.1903592203744,366.44552512119117,,,,,1,1,2024-10-13_00h55.46.358,visual,2024.1.5,121.00994953036302,
2_con_circum,0.25,2,30,1,541,13,,,,2_con_circum_image_19.png,366.55175011356187,366.80394941319537,,,,,1,1,2024-10-13_00h55.46.358,visual,2024.1.5,121.00994953036302,
1_con_totaldot,0.25,1,30,2,542,6,,,,1_con_totaldot_image_23.png,366.91078990457754,367.16232116321044,,,,,1,1,2024-10-13_00h55.46.358,visual,2024.1.5,121.00994953036302,
4_con_singledot,0.25,4,30,3,543,3,,,,4_con_singledot_image_6.png,367.2686252385756,367.5192459962127,,,,,1,1,2024-10-13_00h55.46.358,visual,2024.1.5,121.00994953036302,
3_con_totaldot,0.25,3,30,4,544,8,,,,3_con_totaldot_image_37.png,367.6284292385826,367.8788691212103,,,,,1,1,2024-10-13_00h55.46.358,visual,2024.1.5,121.00994953036302,
1_con_singledot,0.25,1,30,5,545,0,,,,1_con_singledot_image_54.png,367.98490032156406,368.2370985791931,,,,,1,1,2024-10-13_00h55.46.358,visual,2024.1.5,121.00994953036302,
1_con_circum,0.25,1,30,6,546,12,,,,1_con_circum_image_45.png,368.34435315457813,368.5957809132087,,,,,1,1,2024-10-13_00h55.46.358,visual,2024.1.5,121.00994953036302,
6_con_circum,0.25,6,30,7,547,17,,,,6_con_circum_image_65.png,368.7020525295666,368.95430812118866,,,,,1,1,2024-10-13_00h55.46.358,visual,2024.1.5,121.00994953036302,
4_con_circum,0.25,4,30,8,548,15,,,,4_con_circum_image_22.png,369.0610444885824,369.31321291321365,,,,,1,1,2024-10-13_00h55.46.358,visual,2024.1.5,121.00994953036302,
5_con_circum,0.25,5,30,9,549,16,,,,5_con_circum_image_44.png,369.41983261356654,369.67048387120303,,,,,1,1,2024-10-13_00h55.46.358,visual,2024.1.5,121.00994953036302,
5_con_totaldot,0.25,5,30,10,550,10,,,,5_con_totaldot_image_49.png,369.7776639045769,370.0297077041905,,,,,1,1,2024-10-13_00h55.46.358,visual,2024.1.5,121.00994953036302,
6_con_singledot,0.25,6,30,11,551,5,,,,6_con_singledot_image_20.png,370.13601140458195,370.3863206211972,,,,,1,1,2024-10-13_00h55.46.358,visual,2024.1.5,121.00994953036302,
2_con_totaldot,0.25,2,30,12,552,7,,,,2_con_totaldot_image_38.png,370.4951531135739,370.7459246211947,,,,,1,1,2024-10-13_00h55.46.358,visual,2024.1.5,121.00994953036302,
4_con_totaldot,0.25,4,30,13,553,9,,,,4_con_totaldot_image_68.png,370.85207686356443,371.10364457919786,,,,,1,1,2024-10-13_00h55.46.358,visual,2024.1.5,121.00994953036302,
2_con_singledot,0.25,2,30,14,554,1,,,,2_con_singledot_image_47.png,371.2113161545858,371.4626851632056,,,,,1,1,2024-10-13_00h55.46.358,visual,2024.1.5,121.00994953036302,
3_con_singledot,0.25,3,30,15,555,2,,,,3_con_singledot_image_4.png,371.5688708215748,371.81975407920254,,,,,1,1,2024-10-13_00h55.46.358,visual,2024.1.5,121.00994953036302,
3_con_circum,0.25,3,30,16,556,14,,,,3_con_circum_image_26.png,371.9282452795742,372.1788810792059,,,,,1,1,2024-10-13_00h55.46.358,visual,2024.1.5,121.00994953036302,
6_con_totaldot,0.25,6,30,17,557,11,,,,6_con_totaldot_image_54.png,372.2851356135652,372.5363977881934,5.wav,372.64186937501654,4.mp4,372.64186937501654,1,1,2024-10-13_00h55.46.358,visual,2024.1.5,121.00994953036302,
2_con_totaldot,0.25,2,31,0,558,7,,,,2_con_totaldot_image_60.png,374.4735840113717,374.7297917042015,,,,,1,1,2024-10-13_00h55.46.358,visual,2024.1.5,121.00994953036302,
6_con_singledot,0.25,6,31,1,559,5,,,,6_con_singledot_image_26.png,374.83537794656877,375.08643716319057,,,,,1,1,2024-10-13_00h55.46.358,visual,2024.1.5,121.00994953036302,
3_con_totaldot,0.25,3,31,2,560,8,,,,3_con_totaldot_image_60.png,375.1950129465695,375.44561091320065,,,,,1,1,2024-10-13_00h55.46.358,visual,2024.1.5,121.00994953036302,
4_con_totaldot,0.25,4,31,3,561,9,,,,4_con_totaldot_image_19.png,375.5518771965726,375.8037216632074,,,,,1,1,2024-10-13_00h55.46.358,visual,2024.1.5,121.00994953036302,
1_con_totaldot,0.25,1,31,4,562,6,,,,1_con_totaldot_image_14.png,375.91097994656593,376.1630580382043,,,,,1,1,2024-10-13_00h55.46.358,visual,2024.1.5,121.00994953036302,
3_con_circum,0.25,3,31,5,563,14,,,,3_con_circum_image_50.png,376.2692344045645,376.52046091320517,,,,,1,1,2024-10-13_00h55.46.358,visual,2024.1.5,121.00994953036302,
4_con_circum,0.25,4,31,6,564,15,,,,4_con_circum_image_64.png,376.6276923635596,376.879047079201,,,,,1,1,2024-10-13_00h55.46.358,visual,2024.1.5,121.00994953036302,
5_con_circum,0.25,5,31,7,565,16,,,,5_con_circum_image_21.png,376.98538198856113,377.2372276632086,,,,,1,1,2024-10-13_00h55.46.358,visual,2024.1.5,121.00994953036302,
6_con_totaldot,0.25,6,31,8,566,11,,,,6_con_totaldot_image_47.png,377.3444959465851,377.5957526212005,,,,,1,1,2024-10-13_00h55.46.358,visual,2024.1.5,121.00994953036302,
2_con_singledot,0.25,2,31,9,567,1,,,,2_con_singledot_image_49.png,377.7019580715714,377.95401257921185,,,,,1,1,2024-10-13_00h55.46.358,visual,2024.1.5,121.00994953036302,
5_con_singledot,0.25,5,31,10,568,4,,,,5_con_singledot_image_35.png,378.06107219656406,378.3129589132004,,,,,1,1,2024-10-13_00h55.46.358,visual,2024.1.5,121.00994953036302,
4_con_singledot,0.25,4,31,11,569,3,,,,4_con_singledot_image_37.png,378.41917511356587,378.66983437120507,,,,,1,1,2024-10-13_00h55.46.358,visual,2024.1.5,121.00994953036302,
1_con_singledot,0.25,1,31,12,570,0,,,,1_con_singledot_image_18.png,378.778513488578,379.0297530792159,,,,,1,1,2024-10-13_00h55.46.358,visual,2024.1.5,121.00994953036302,
3_con_singledot,0.25,3,31,13,571,2,,,,3_con_singledot_image_54.png,379.1358896545862,379.3867169961886,,,,,1,1,2024-10-13_00h55.46.358,visual,2024.1.5,121.00994953036302,
5_con_totaldot,0.25,5,31,14,572,10,,,,5_con_totaldot_image_3.png,379.4951630295691,379.74600307921355,,,,,1,1,2024-10-13_00h55.46.358,visual,2024.1.5,121.00994953036302,
1_con_circum,0.25,1,31,15,573,12,,,,1_con_circum_image_16.png,379.85230136358587,380.10330857920053,,,,,1,1,2024-10-13_00h55.46.358,visual,2024.1.5,121.00994953036302,
6_con_circum,0.25,6,31,16,574,17,,,,6_con_circum_image_55.png,380.2111903635814,380.46288745421043,,,,,1,1,2024-10-13_00h55.46.358,visual,2024.1.5,121.00994953036302,
2_con_circum,0.25,2,31,17,575,13,,,,2_con_circum_image_9.png,380.5690735295793,380.8198886632017,5.wav,380.9214314589917,16.mp4,380.9214314589917,1,1,2024-10-13_00h55.46.358,visual,2024.1.5,121.00994953036302,
1_con_totaldot,0.25,1,32,0,576,6,,,,1_con_totaldot_image_52.png,382.75613038637675,383.01281091319106,,,,,1,1,2024-10-13_00h55.46.358,visual,2024.1.5,121.00994953036302,
5_con_totaldot,0.25,5,32,1,577,10,,,,5_con_totaldot_image_57.png,383.11962440457137,383.37089128819935,,,,,1,1,2024-10-13_00h55.46.358,visual,2024.1.5,121.00994953036302,
6_con_circum,0.25,6,32,2,578,17,,,,6_con_circum_image_3.png,383.47828790456697,383.72983099620615,,,,,1,1,2024-10-13_00h55.46.358,visual,2024.1.5,121.00994953036302,
2_con_totaldot,0.25,2,32,3,579,7,,,,2_con_totaldot_image_62.png,383.8360142795864,384.0871690382046,,,,,1,1,2024-10-13_00h55.46.358,visual,2024.1.5,121.00994953036302,
4_con_totaldot,0.25,4,32,4,580,9,,,,4_con_totaldot_image_30.png,384.1944894045737,384.4457931211946,,,,,1,1,2024-10-13_00h55.46.358,visual,2024.1.5,121.00994953036302,
1_con_singledot,0.25,1,32,5,581,0,,,,1_con_singledot_image_58.png,384.5513692385721,384.80363207920163,,,,,1,1,2024-10-13_00h55.46.358,visual,2024.1.5,121.00994953036302,
