condition,duration,numerosity,trials.thisRepN,trials.thisTrialN,trials.thisN,trials.thisIndex,thisRow.t,notes,text_welcome.started,image_name,image_number,image.started,image.stopped,audio_name,audio_started,movie_name,movie_started,participant,session,date|hid,expName|hid,psychopyVersion|hid,frameRate,
6_con_singledot,0.25,6,0,0,0,5,,,115.50212833296973,6_con_singledot_image_19.png,19,117.44168539994862,117.69252472049557,,,,,1,1,2024-10-28_16h45.51.295,visual,2024.1.5,120.18081263990995,
5_con_circum,0.25,5,0,1,1,16,,,,5_con_circum_image_27.png,27,117.80060891250615,118.05147176252213,,,,,1,1,2024-10-28_16h45.51.295,visual,2024.1.5,120.18081263990995,
6_con_totaldot,0.25,6,0,2,2,11,,,,6_con_totaldot_image_66.png,66,118.15820628756192,118.40907367847394,,,,,1,1,2024-10-28_16h45.51.295,visual,2024.1.5,120.18081263990995,
3_con_circum,0.25,3,0,3,3,14,,,,3_con_circum_image_31.png,31,118.51739353747108,118.7683196374448,,,,,1,1,2024-10-28_16h45.51.295,visual,2024.1.5,120.18081263990995,
2_con_singledot,0.25,2,0,4,4,1,,,,2_con_singledot_image_51.png,51,118.8748836624669,119.12627401242499,,,,,1,1,2024-10-28_16h45.51.295,visual,2024.1.5,120.18081263990995,
2_con_totaldot,0.25,2,0,5,5,7,,,,2_con_totaldot_image_13.png,13,119.23406295352616,119.4856470955303,,,,,1,1,2024-10-28_16h45.51.295,visual,2024.1.5,120.18081263990995,
4_con_totaldot,0.25,4,0,6,6,9,,,,4_con_totaldot_image_38.png,38,119.59214499548544,119.84181592850946,,,,,1,1,2024-10-28_16h45.51.295,visual,2024.1.5,120.18081263990995,
3_con_totaldot,0.25,3,0,7,7,8,,,,3_con_totaldot_image_55.png,55,119.95153770353646,120.20211672042497,,,,,1,1,2024-10-28_16h45.51.295,visual,2024.1.5,120.18081263990995,
5_con_singledot,0.25,5,0,8,8,4,,,,5_con_singledot_image_33.png,33,120.30863337046468,120.55927084542346,,,,,1,1,2024-10-28_16h45.51.295,visual,2024.1.5,120.18081263990995,
4_con_circum,0.25,4,0,9,9,15,,,,4_con_circum_image_63.png,63,120.66799641251565,120.91828805352561,,,,,1,1,2024-10-28_16h45.51.295,visual,2024.1.5,120.18081263990995,
1_con_totaldot,0.25,1,0,10,10,6,,,,1_con_totaldot_image_43.png,43,121.02496482853313,121.27571751251817,,,,,1,1,2024-10-28_16h45.51.295,visual,2024.1.5,120.18081263990995,
5_con_totaldot,0.25,5,0,11,11,10,,,,5_con_totaldot_image_15.png,15,121.38471070353408,121.63532092845999,,,,,1,1,2024-10-28_16h45.51.295,visual,2024.1.5,120.18081263990995,
2_con_circum,0.25,2,0,12,12,13,,,,2_con_circum_image_55.png,55,121.74184470346664,121.99240484547336,,,,,1,1,2024-10-28_16h45.51.295,visual,2024.1.5,120.18081263990995,
3_con_singledot,0.25,3,0,13,13,2,,,,3_con_singledot_image_48.png,48,122.10108007853852,122.35165622043424,,,,,1,1,2024-10-28_16h45.51.295,visual,2024.1.5,120.18081263990995,
1_con_circum,0.25,1,0,14,14,12,,,,1_con_circum_image_2.png,2,122.4582409535302,122.70996213743929,,,,,1,1,2024-10-28_16h45.51.295,visual,2024.1.5,120.18081263990995,
1_con_singledot,0.25,1,0,15,15,0,,,,1_con_singledot_image_44.png,44,122.81731053746772,123.06941147048492,,,,,1,1,2024-10-28_16h45.51.295,visual,2024.1.5,120.18081263990995,
6_con_circum,0.25,6,0,16,16,17,,,,6_con_circum_image_9.png,9,123.17543870352675,123.42661692847032,,,,,1,1,2024-10-28_16h45.51.295,visual,2024.1.5,120.18081263990995,
4_con_singledot,0.25,4,0,17,17,3,,,,4_con_singledot_image_63.png,63,123.53558199552354,123.78582426246722,1.wav,123.8858191659674,2.mp4,123.8858191659674,1,1,2024-10-28_16h45.51.295,visual,2024.1.5,120.18081263990995,
4_con_circum,0.25,4,1,0,18,15,,,,4_con_circum_image_20.png,20,125.74119118335658,125.99573967843317,,,,,1,1,2024-10-28_16h45.51.295,visual,2024.1.5,120.18081263990995,
5_con_singledot,0.25,5,1,1,19,4,,,,5_con_singledot_image_19.png,19,126.10315612053965,126.35257434546948,,,,,1,1,2024-10-28_16h45.51.295,visual,2024.1.5,120.18081263990995,
6_con_circum,0.25,6,1,2,20,17,,,,6_con_circum_image_31.png,31,126.4593420374673,126.70986997049768,,,,,1,1,2024-10-28_16h45.51.295,visual,2024.1.5,120.18081263990995,
6_con_singledot,0.25,6,1,3,21,5,,,,6_con_singledot_image_37.png,37,126.81732782851905,127.0684543875279,,,,,1,1,2024-10-28_16h45.51.295,visual,2024.1.5,120.18081263990995,
4_con_singledot,0.25,4,1,4,22,3,,,,4_con_singledot_image_33.png,33,127.17497337053065,127.42631659545005,,,,,1,1,2024-10-28_16h45.51.295,visual,2024.1.5,120.18081263990995,
3_con_circum,0.25,3,1,5,23,14,,,,3_con_circum_image_27.png,27,127.53400695349556,127.78575009542983,,,,,1,1,2024-10-28_16h45.51.295,visual,2024.1.5,120.18081263990995,
4_con_totaldot,0.25,4,1,6,24,9,,,,4_con_totaldot_image_51.png,51,127.89233870352619,128.14292809546458,,,,,1,1,2024-10-28_16h45.51.295,visual,2024.1.5,120.18081263990995,
3_con_singledot,0.25,3,1,7,25,2,,,,3_con_singledot_image_26.png,26,128.25079432853963,128.5017492624931,,,,,1,1,2024-10-28_16h45.51.295,visual,2024.1.5,120.18081263990995,
5_con_circum,0.25,5,1,8,26,16,,,,5_con_circum_image_44.png,44,128.60820245349313,128.85928767842705,,,,,1,1,2024-10-28_16h45.51.295,visual,2024.1.5,120.18081263990995,
5_con_totaldot,0.25,5,1,9,27,10,,,,5_con_totaldot_image_39.png,39,128.96846674547996,129.21910051249432,,,,,1,1,2024-10-28_16h45.51.295,visual,2024.1.5,120.18081263990995,
1_con_totaldot,0.25,1,1,10,28,6,,,,1_con_totaldot_image_60.png,60,129.3257975374814,129.5763717204565,,,,,1,1,2024-10-28_16h45.51.295,visual,2024.1.5,120.18081263990995,
1_con_circum,0.25,1,1,11,29,12,,,,1_con_circum_image_52.png,52,129.68452774549368,129.93556751245632,,,,,1,1,2024-10-28_16h45.51.295,visual,2024.1.5,120.18081263990995,
6_con_totaldot,0.25,6,1,12,30,11,,,,6_con_totaldot_image_43.png,43,130.04211762049235,130.29248276252764,,,,,1,1,2024-10-28_16h45.51.295,visual,2024.1.5,120.18081263990995,
2_con_totaldot,0.25,2,1,13,31,7,,,,2_con_totaldot_image_47.png,47,130.4020511624636,130.65221113751176,,,,,1,1,2024-10-28_16h45.51.295,visual,2024.1.5,120.18081263990995,
2_con_circum,0.25,2,1,14,32,13,,,,2_con_circum_image_32.png,32,130.75811982855666,131.00972738750278,,,,,1,1,2024-10-28_16h45.51.295,visual,2024.1.5,120.18081263990995,
2_con_singledot,0.25,2,1,15,33,1,,,,2_con_singledot_image_14.png,14,131.11804307848215,131.3693158034468,,,,,1,1,2024-10-28_16h45.51.295,visual,2024.1.5,120.18081263990995,
1_con_singledot,0.25,1,1,16,34,0,,,,1_con_singledot_image_70.png,70,131.47589491251856,131.72662526245693,,,,,1,1,2024-10-28_16h45.51.295,visual,2024.1.5,120.18081263990995,
3_con_totaldot,0.25,3,1,17,35,8,,,,3_con_totaldot_image_1.png,1,131.83469016246963,132.08514559553004,4.wav,132.1847311659949,7.mp4,132.1847311659949,1,1,2024-10-28_16h45.51.295,visual,2024.1.5,120.18081263990995,
3_con_circum,0.25,3,2,0,36,14,,,,3_con_circum_image_24.png,24,134.02560176632832,134.2757329284679,,,,,1,1,2024-10-28_16h45.51.295,visual,2024.1.5,120.18081263990995,
4_con_singledot,0.25,4,2,1,37,3,,,,4_con_singledot_image_21.png,21,134.38517845354508,134.63560834543313,,,,,1,1,2024-10-28_16h45.51.295,visual,2024.1.5,120.18081263990995,
6_con_circum,0.25,6,2,2,38,17,,,,6_con_circum_image_33.png,33,134.74146382850594,134.99261426243464,,,,,1,1,2024-10-28_16h45.51.295,visual,2024.1.5,120.18081263990995,
5_con_totaldot,0.25,5,2,3,39,10,,,,5_con_totaldot_image_10.png,10,135.10141678750514,135.35440801251679,,,,,1,1,2024-10-28_16h45.51.295,visual,2024.1.5,120.18081263990995,
1_con_circum,0.25,1,2,4,40,12,,,,1_con_circum_image_9.png,9,135.46457924556452,135.71905151247046,,,,,1,1,2024-10-28_16h45.51.295,visual,2024.1.5,120.18081263990995,
6_con_singledot,0.25,6,2,5,41,5,,,,6_con_singledot_image_35.png,35,135.82601791250053,136.07661551241762,,,,,1,1,2024-10-28_16h45.51.295,visual,2024.1.5,120.18081263990995,
4_con_circum,0.25,4,2,6,42,15,,,,4_con_circum_image_13.png,13,136.18467103750444,136.43539322044234,,,,,1,1,2024-10-28_16h45.51.295,visual,2024.1.5,120.18081263990995,
2_con_circum,0.25,2,2,7,43,13,,,,2_con_circum_image_18.png,18,136.54190166250336,136.79316551242954,,,,,1,1,2024-10-28_16h45.51.295,visual,2024.1.5,120.18081263990995,
3_con_totaldot,0.25,3,2,8,44,8,,,,3_con_totaldot_image_10.png,10,136.90152332852594,137.1526393454289,,,,,1,1,2024-10-28_16h45.51.295,visual,2024.1.5,120.18081263990995,
1_con_totaldot,0.25,1,2,9,45,6,,,,1_con_totaldot_image_58.png,58,137.25922957856673,137.50979963752906,,,,,1,1,2024-10-28_16h45.51.295,visual,2024.1.5,120.18081263990995,
1_con_singledot,0.25,1,2,10,46,0,,,,1_con_singledot_image_61.png,61,137.6181060784962,137.8694906784687,,,,,1,1,2024-10-28_16h45.51.295,visual,2024.1.5,120.18081263990995,
2_con_totaldot,0.25,2,2,11,47,7,,,,2_con_totaldot_image_70.png,70,137.9763184954878,138.2262246375205,,,,,1,1,2024-10-28_16h45.51.295,visual,2024.1.5,120.18081263990995,
3_con_singledot,0.25,3,2,12,48,2,,,,3_con_singledot_image_31.png,31,138.33450187046546,138.58581780344247,,,,,1,1,2024-10-28_16h45.51.295,visual,2024.1.5,120.18081263990995,
5_con_singledot,0.25,5,2,13,49,4,,,,5_con_singledot_image_6.png,6,138.6923526205588,138.94528113752602,,,,,1,1,2024-10-28_16h45.51.295,visual,2024.1.5,120.18081263990995,
4_con_totaldot,0.25,4,2,14,50,9,,,,4_con_totaldot_image_29.png,29,139.05237424550577,139.3027377624996,,,,,1,1,2024-10-28_16h45.51.295,visual,2024.1.5,120.18081263990995,
2_con_singledot,0.25,2,2,15,51,1,,,,2_con_singledot_image_69.png,69,139.40930466251447,139.66037467848508,,,,,1,1,2024-10-28_16h45.51.295,visual,2024.1.5,120.18081263990995,
6_con_totaldot,0.25,6,2,16,52,11,,,,6_con_totaldot_image_4.png,4,139.76775937052443,140.01912292842752,,,,,1,1,2024-10-28_16h45.51.295,visual,2024.1.5,120.18081263990995,
5_con_circum,0.25,5,2,17,53,16,,,,5_con_circum_image_5.png,5,140.12565216249786,140.37648555350023,3.wav,140.47773095802404,12.mp4,140.47773095802404,1,1,2024-10-28_16h45.51.295,visual,2024.1.5,120.18081263990995,
1_con_totaldot,0.25,1,3,0,54,6,,,,1_con_totaldot_image_66.png,66,142.33837780836038,142.5930690124398,,,,,1,1,2024-10-28_16h45.51.295,visual,2024.1.5,120.18081263990995,
6_con_singledot,0.25,6,3,1,55,5,,,,6_con_singledot_image_53.png,53,142.7010817454662,142.95213634548708,,,,,1,1,2024-10-28_16h45.51.295,visual,2024.1.5,120.18081263990995,
2_con_circum,0.25,2,3,2,56,13,,,,2_con_circum_image_7.png,7,143.05872557850088,143.31349172051995,,,,,1,1,2024-10-28_16h45.51.295,visual,2024.1.5,120.18081263990995,
1_con_singledot,0.25,1,3,3,57,0,,,,1_con_singledot_image_14.png,14,143.42121132849715,143.67086505347396,,,,,1,1,2024-10-28_16h45.51.295,visual,2024.1.5,120.18081263990995,
5_con_totaldot,0.25,5,3,4,58,10,,,,5_con_totaldot_image_46.png,46,143.77850762046873,144.035991637432,,,,,1,1,2024-10-28_16h45.51.295,visual,2024.1.5,120.18081263990995,
4_con_totaldot,0.25,4,3,5,59,9,,,,4_con_totaldot_image_25.png,25,144.1426117455354,144.39287142844404,,,,,1,1,2024-10-28_16h45.51.295,visual,2024.1.5,120.18081263990995,
4_con_singledot,0.25,4,3,6,60,3,,,,4_con_singledot_image_50.png,50,144.50113141248002,144.75211759544908,,,,,1,1,2024-10-28_16h45.51.295,visual,2024.1.5,120.18081263990995,
3_con_totaldot,0.25,3,3,7,61,8,,,,3_con_totaldot_image_3.png,3,144.89170167057307,145.15267934550064,,,,,1,1,2024-10-28_16h45.51.295,visual,2024.1.5,120.18081263990995,
6_con_circum,0.25,6,3,8,62,17,,,,6_con_circum_image_27.png,27,145.26314678755588,145.51982376251834,,,,,1,1,2024-10-28_16h45.51.295,visual,2024.1.5,120.18081263990995,
4_con_circum,0.25,4,3,9,63,15,,,,4_con_circum_image_47.png,47,145.62677745348773,145.87644813749938,,,,,1,1,2024-10-28_16h45.51.295,visual,2024.1.5,120.18081263990995,
1_con_circum,0.25,1,3,10,64,12,,,,1_con_circum_image_35.png,35,145.98480057846754,146.24149097052867,,,,,1,1,2024-10-28_16h45.51.295,visual,2024.1.5,120.18081263990995,
2_con_totaldot,0.25,2,3,11,65,7,,,,2_con_totaldot_image_22.png,22,146.35224799546413,146.60392667846753,,,,,1,1,2024-10-28_16h45.51.295,visual,2024.1.5,120.18081263990995,
2_con_singledot,0.25,2,3,12,66,1,,,,2_con_singledot_image_39.png,39,146.71089412053115,146.9605805954663,,,,,1,1,2024-10-28_16h45.51.295,visual,2024.1.5,120.18081263990995,
3_con_circum,0.25,3,3,13,67,14,,,,3_con_circum_image_68.png,68,147.0683025375707,147.3195233875187,,,,,1,1,2024-10-28_16h45.51.295,visual,2024.1.5,120.18081263990995,
5_con_singledot,0.25,5,3,14,68,4,,,,5_con_singledot_image_43.png,43,147.4260826205369,147.67654597042127,,,,,1,1,2024-10-28_16h45.51.295,visual,2024.1.5,120.18081263990995,
6_con_totaldot,0.25,6,3,15,69,11,,,,6_con_totaldot_image_27.png,27,147.7847840375267,148.03548272051847,,,,,1,1,2024-10-28_16h45.51.295,visual,2024.1.5,120.18081263990995,
3_con_singledot,0.25,3,3,16,70,2,,,,3_con_singledot_image_68.png,68,148.14200541251338,148.39299842847976,,,,,1,1,2024-10-28_16h45.51.295,visual,2024.1.5,120.18081263990995,
5_con_circum,0.25,5,3,17,71,16,,,,5_con_circum_image_50.png,50,148.50136587049346,148.75305634543764,5.wav,148.85250095801894,12.mp4,148.85250095801894,1,1,2024-10-28_16h45.51.295,visual,2024.1.5,120.18081263990995,
6_con_circum,0.25,6,4,0,72,17,,,,6_con_circum_image_32.png,32,150.69128222533035,150.9431233874522,,,,,1,1,2024-10-28_16h45.51.295,visual,2024.1.5,120.18081263990995,
4_con_totaldot,0.25,4,4,1,73,9,,,,4_con_totaldot_image_34.png,34,151.05168995356652,151.30292926244437,,,,,1,1,2024-10-28_16h45.51.295,visual,2024.1.5,120.18081263990995,
2_con_totaldot,0.25,2,4,2,74,7,,,,2_con_totaldot_image_66.png,66,151.40967266252264,151.66132451249285,,,,,1,1,2024-10-28_16h45.51.295,visual,2024.1.5,120.18081263990995,
1_con_circum,0.25,1,4,3,75,12,,,,1_con_circum_image_41.png,41,151.76841699555516,152.01962213746737,,,,,1,1,2024-10-28_16h45.51.295,visual,2024.1.5,120.18081263990995,
2_con_circum,0.25,2,4,4,76,13,,,,2_con_circum_image_54.png,54,152.12612903749104,152.37808484542182,,,,,1,1,2024-10-28_16h45.51.295,visual,2024.1.5,120.18081263990995,
6_con_totaldot,0.25,6,4,5,77,11,,,,6_con_totaldot_image_21.png,21,152.4866077455459,152.74303584550506,,,,,1,1,2024-10-28_16h45.51.295,visual,2024.1.5,120.18081263990995,
1_con_totaldot,0.25,1,4,6,78,6,,,,1_con_totaldot_image_57.png,57,152.85223053747322,153.10221805346663,,,,,1,1,2024-10-28_16h45.51.295,visual,2024.1.5,120.18081263990995,
5_con_totaldot,0.25,5,4,7,79,10,,,,5_con_totaldot_image_31.png,31,153.20903824551496,153.4601890125079,,,,,1,1,2024-10-28_16h45.51.295,visual,2024.1.5,120.18081263990995,
3_con_circum,0.25,3,4,8,80,14,,,,3_con_circum_image_50.png,50,153.56837012050673,153.8193432204891,,,,,1,1,2024-10-28_16h45.51.295,visual,2024.1.5,120.18081263990995,
2_con_singledot,0.25,2,4,9,81,1,,,,2_con_singledot_image_21.png,21,153.92589391246437,154.17686717845498,,,,,1,1,2024-10-28_16h45.51.295,visual,2024.1.5,120.18081263990995,
6_con_singledot,0.25,6,4,10,82,5,,,,6_con_singledot_image_9.png,9,154.28539482855703,154.53561426249797,,,,,1,1,2024-10-28_16h45.51.295,visual,2024.1.5,120.18081263990995,
3_con_singledot,0.25,3,4,11,83,2,,,,3_con_singledot_image_60.png,60,154.64169066250324,154.8939656374743,,,,,1,1,2024-10-28_16h45.51.295,visual,2024.1.5,120.18081263990995,
5_con_singledot,0.25,5,4,12,84,4,,,,5_con_singledot_image_35.png,35,155.00215887047815,155.25280413746367,,,,,1,1,2024-10-28_16h45.51.295,visual,2024.1.5,120.18081263990995,
5_con_circum,0.25,5,4,13,85,16,,,,5_con_circum_image_36.png,36,155.35925341248512,155.61039280348922,,,,,1,1,2024-10-28_16h45.51.295,visual,2024.1.5,120.18081263990995,
3_con_totaldot,0.25,3,4,14,86,8,,,,3_con_totaldot_image_40.png,40,155.71850324552506,155.96897872053086,,,,,1,1,2024-10-28_16h45.51.295,visual,2024.1.5,120.18081263990995,
1_con_singledot,0.25,1,4,15,87,0,,,,1_con_singledot_image_29.png,29,156.07586099547333,156.3272856374271,,,,,1,1,2024-10-28_16h45.51.295,visual,2024.1.5,120.18081263990995,
4_con_singledot,0.25,4,4,16,88,3,,,,4_con_singledot_image_45.png,45,156.4355239535449,156.68615547048393,,,,,1,1,2024-10-28_16h45.51.295,visual,2024.1.5,120.18081263990995,
4_con_circum,0.25,4,4,17,89,15,,,,4_con_circum_image_2.png,2,156.79273462053388,157.04405813750344,1.wav,157.1448831249727,14.mp4,157.1448831249727,1,1,2024-10-28_16h45.51.295,visual,2024.1.5,120.18081263990995,
5_con_totaldot,0.25,5,5,0,90,10,,,,5_con_totaldot_image_37.png,37,158.98277135032694,159.2356916374294,,,,,1,1,2024-10-28_16h45.51.295,visual,2024.1.5,120.18081263990995,
4_con_totaldot,0.25,4,5,1,91,9,,,,4_con_totaldot_image_19.png,19,159.34245832848828,159.5933834284544,,,,,1,1,2024-10-28_16h45.51.295,visual,2024.1.5,120.18081263990995,
2_con_singledot,0.25,2,5,2,92,1,,,,2_con_singledot_image_55.png,55,159.70179107857402,159.9532031374285,,,,,1,1,2024-10-28_16h45.51.295,visual,2024.1.5,120.18081263990995,
2_con_circum,0.25,2,5,3,93,13,,,,2_con_circum_image_69.png,69,160.05972957846242,160.31079709546174,,,,,1,1,2024-10-28_16h45.51.295,visual,2024.1.5,120.18081263990995,
5_con_circum,0.25,5,5,4,94,16,,,,5_con_circum_image_19.png,19,160.4186214955058,160.66956601249984,,,,,1,1,2024-10-28_16h45.51.295,visual,2024.1.5,120.18081263990995,
3_con_totaldot,0.25,3,5,5,95,8,,,,3_con_totaldot_image_47.png,47,160.7769495374756,161.02701663742772,,,,,1,1,2024-10-28_16h45.51.295,visual,2024.1.5,120.18081263990995,
1_con_singledot,0.25,1,5,6,96,0,,,,1_con_singledot_image_52.png,52,161.1352273285389,161.38659488752018,,,,,1,1,2024-10-28_16h45.51.295,visual,2024.1.5,120.18081263990995,
6_con_singledot,0.25,6,5,7,97,5,,,,6_con_singledot_image_60.png,60,161.4930647035595,161.74331751249264,,,,,1,1,2024-10-28_16h45.51.295,visual,2024.1.5,120.18081263990995,
4_con_circum,0.25,4,5,8,98,15,,,,4_con_circum_image_19.png,19,161.852130120527,162.10245801245327,,,,,1,1,2024-10-28_16h45.51.295,visual,2024.1.5,120.18081263990995,
1_con_totaldot,0.25,1,5,9,99,6,,,,1_con_totaldot_image_8.png,8,162.2091178705683,162.46074713747947,,,,,1,1,2024-10-28_16h45.51.295,visual,2024.1.5,120.18081263990995,
3_con_singledot,0.25,3,5,10,100,2,,,,3_con_singledot_image_37.png,37,162.56812128752935,162.81911484552546,,,,,1,1,2024-10-28_16h45.51.295,visual,2024.1.5,120.18081263990995,
6_con_totaldot,0.25,6,5,11,101,11,,,,6_con_totaldot_image_22.png,22,162.92562982849776,163.1765895124292,,,,,1,1,2024-10-28_16h45.51.295,visual,2024.1.5,120.18081263990995,
6_con_circum,0.25,6,5,12,102,17,,,,6_con_circum_image_58.png,58,163.28521949555724,163.53583042852114,,,,,1,1,2024-10-28_16h45.51.295,visual,2024.1.5,120.18081263990995,
2_con_totaldot,0.25,2,5,13,103,7,,,,2_con_totaldot_image_23.png,23,163.64238732845988,163.89370747043284,,,,,1,1,2024-10-28_16h45.51.295,visual,2024.1.5,120.18081263990995,
1_con_circum,0.25,1,5,14,104,12,,,,1_con_circum_image_42.png,42,164.0015461205272,164.25320572049822,,,,,1,1,2024-10-28_16h45.51.295,visual,2024.1.5,120.18081263990995,
4_con_singledot,0.25,4,5,15,105,3,,,,4_con_singledot_image_5.png,5,164.3597696625162,164.60997334546408,,,,,1,1,2024-10-28_16h45.51.295,visual,2024.1.5,120.18081263990995,
5_con_singledot,0.25,5,5,16,106,4,,,,5_con_singledot_image_27.png,27,164.7190752874827,164.9692995534744,,,,,1,1,2024-10-28_16h45.51.295,visual,2024.1.5,120.18081263990995,
3_con_circum,0.25,3,5,17,107,14,,,,3_con_circum_image_25.png,25,165.07600345348473,165.33228534546214,2.wav,165.43228016595822,12.mp4,165.43228016595822,1,1,2024-10-28_16h45.51.295,visual,2024.1.5,120.18081263990995,
5_con_totaldot,0.25,5,6,0,108,10,,,,5_con_totaldot_image_4.png,4,167.29003314129076,167.54339088748674,,,,,1,1,2024-10-28_16h45.51.295,visual,2024.1.5,120.18081263990995,
1_con_totaldot,0.25,1,6,1,109,6,,,,1_con_totaldot_image_64.png,64,167.65271078750956,167.90352872041984,,,,,1,1,2024-10-28_16h45.51.295,visual,2024.1.5,120.18081263990995,
6_con_circum,0.25,6,6,2,110,17,,,,6_con_circum_image_23.png,23,168.01023353755008,168.26063351244665,,,,,1,1,2024-10-28_16h45.51.295,visual,2024.1.5,120.18081263990995,
3_con_circum,0.25,3,6,3,111,14,,,,3_con_circum_image_13.png,13,168.3682581625413,168.61936942841857,,,,,1,1,2024-10-28_16h45.51.295,visual,2024.1.5,120.18081263990995,
1_con_circum,0.25,1,6,4,112,12,,,,1_con_circum_image_69.png,69,168.72588266248349,168.98041863744146,,,,,1,1,2024-10-28_16h45.51.295,visual,2024.1.5,120.18081263990995,
6_con_totaldot,0.25,6,6,5,113,11,,,,6_con_totaldot_image_16.png,16,169.10427553756162,169.360809470457,,,,,1,1,2024-10-28_16h45.51.295,visual,2024.1.5,120.18081263990995,
4_con_circum,0.25,4,6,6,114,15,,,,4_con_circum_image_24.png,24,169.48951237057335,169.74402063752058,,,,,1,1,2024-10-28_16h45.51.295,visual,2024.1.5,120.18081263990995,
3_con_totaldot,0.25,3,6,7,115,8,,,,3_con_totaldot_image_30.png,30,169.8516689535696,170.10312205348163,,,,,1,1,2024-10-28_16h45.51.295,visual,2024.1.5,120.18081263990995,
2_con_circum,0.25,2,6,8,116,13,,,,2_con_circum_image_20.png,20,170.2096818705555,170.45999572046566,,,,,1,1,2024-10-28_16h45.51.295,visual,2024.1.5,120.18081263990995,
5_con_circum,0.25,5,6,9,117,16,,,,5_con_circum_image_15.png,15,170.56915695350617,170.82009901250711,,,,,1,1,2024-10-28_16h45.51.295,visual,2024.1.5,120.18081263990995,
4_con_singledot,0.25,4,6,10,118,3,,,,4_con_singledot_image_51.png,51,170.9265888284659,171.17685280349104,,,,,1,1,2024-10-28_16h45.51.295,visual,2024.1.5,120.18081263990995,
4_con_totaldot,0.25,4,6,11,119,9,,,,4_con_totaldot_image_53.png,53,171.28578057852573,171.536473887437,,,,,1,1,2024-10-28_16h45.51.295,visual,2024.1.5,120.18081263990995,
6_con_singledot,0.25,6,6,12,120,5,,,,6_con_singledot_image_54.png,54,171.6431660375325,171.8944578035036,,,,,1,1,2024-10-28_16h45.51.295,visual,2024.1.5,120.18081263990995,
3_con_singledot,0.25,3,6,13,121,2,,,,3_con_singledot_image_12.png,12,172.00223645349033,172.25261272052302,,,,,1,1,2024-10-28_16h45.51.295,visual,2024.1.5,120.18081263990995,
5_con_singledot,0.25,5,6,14,122,4,,,,5_con_singledot_image_2.png,2,172.35920178752858,172.61007122048176,,,,,1,1,2024-10-28_16h45.51.295,visual,2024.1.5,120.18081263990995,
2_con_totaldot,0.25,2,6,15,123,7,,,,2_con_totaldot_image_63.png,63,172.71840916250366,172.96932938746176,,,,,1,1,2024-10-28_16h45.51.295,visual,2024.1.5,120.18081263990995,
1_con_singledot,0.25,1,6,16,124,0,,,,1_con_singledot_image_66.png,66,173.07591537050902,173.32683838745578,,,,,1,1,2024-10-28_16h45.51.295,visual,2024.1.5,120.18081263990995,
2_con_singledot,0.25,2,6,17,125,1,,,,2_con_singledot_image_4.png,4,173.43629070350434,173.68595355346332,2.wav,173.78538116591517,1.mp4,173.78538116591517,1,1,2024-10-28_16h45.51.295,visual,2024.1.5,120.18081263990995,
1_con_circum,0.25,1,7,0,126,12,,,,1_con_circum_image_56.png,56,175.61107835036236,175.86097597044426,,,,,1,1,2024-10-28_16h45.51.295,visual,2024.1.5,120.18081263990995,
5_con_circum,0.25,5,7,1,127,16,,,,5_con_circum_image_39.png,39,175.96850949551444,176.21998838747385,,,,,1,1,2024-10-28_16h45.51.295,visual,2024.1.5,120.18081263990995,
6_con_circum,0.25,6,7,2,128,17,,,,6_con_circum_image_28.png,28,176.32654203756246,176.57709730351343,,,,,1,1,2024-10-28_16h45.51.295,visual,2024.1.5,120.18081263990995,
6_con_totaldot,0.25,6,7,3,129,11,,,,6_con_totaldot_image_46.png,46,176.68557437045965,176.93615584545768,,,,,1,1,2024-10-28_16h45.51.295,visual,2024.1.5,120.18081263990995,
4_con_totaldot,0.25,4,7,4,130,9,,,,4_con_totaldot_image_37.png,37,177.04276541250292,177.2939969284227,,,,,1,1,2024-10-28_16h45.51.295,visual,2024.1.5,120.18081263990995,
2_con_totaldot,0.25,2,7,5,131,7,,,,2_con_totaldot_image_33.png,33,177.40264095356687,177.65278134546242,,,,,1,1,2024-10-28_16h45.51.295,visual,2024.1.5,120.18081263990995,
2_con_circum,0.25,2,7,6,132,13,,,,2_con_circum_image_67.png,67,177.75934728749561,178.01033501250203,,,,,1,1,2024-10-28_16h45.51.295,visual,2024.1.5,120.18081263990995,
5_con_totaldot,0.25,5,7,7,133,10,,,,5_con_totaldot_image_19.png,19,178.11935174548998,178.37006655351723,,,,,1,1,2024-10-28_16h45.51.295,visual,2024.1.5,120.18081263990995,
3_con_singledot,0.25,3,7,8,134,2,,,,3_con_singledot_image_35.png,35,178.47675707857124,178.72785155351738,,,,,1,1,2024-10-28_16h45.51.295,visual,2024.1.5,120.18081263990995,
3_con_totaldot,0.25,3,7,9,135,8,,,,3_con_totaldot_image_18.png,18,178.83515920352656,179.08698805344756,,,,,1,1,2024-10-28_16h45.51.295,visual,2024.1.5,120.18081263990995,
4_con_circum,0.25,4,7,10,136,15,,,,4_con_circum_image_10.png,10,179.19357712056953,179.44365059542469,,,,,1,1,2024-10-28_16h45.51.295,visual,2024.1.5,120.18081263990995,
1_con_totaldot,0.25,1,7,11,137,6,,,,1_con_totaldot_image_61.png,61,179.55272237050812,179.80292222048155,,,,,1,1,2024-10-28_16h45.51.295,visual,2024.1.5,120.18081263990995,
6_con_singledot,0.25,6,7,12,138,5,,,,6_con_singledot_image_36.png,36,179.9088503704639,180.1603948034346,,,,,1,1,2024-10-28_16h45.51.295,visual,2024.1.5,120.18081263990995,
1_con_singledot,0.25,1,7,13,139,0,,,,1_con_singledot_image_9.png,9,180.2698152035242,180.51992059550247,,,,,1,1,2024-10-28_16h45.51.295,visual,2024.1.5,120.18081263990995,
2_con_singledot,0.25,2,7,14,140,1,,,,2_con_singledot_image_31.png,31,180.62645091246813,180.8771350124618,,,,,1,1,2024-10-28_16h45.51.295,visual,2024.1.5,120.18081263990995,
3_con_circum,0.25,3,7,15,141,14,,,,3_con_circum_image_18.png,18,180.98515103748068,181.23603330347686,,,,,1,1,2024-10-28_16h45.51.295,visual,2024.1.5,120.18081263990995,
4_con_singledot,0.25,4,7,16,142,3,,,,4_con_singledot_image_62.png,62,181.34257070349994,181.5939275954617,,,,,1,1,2024-10-28_16h45.51.295,visual,2024.1.5,120.18081263990995,
5_con_singledot,0.25,5,7,17,143,4,,,,5_con_singledot_image_59.png,59,181.70257162048946,181.95361430342308,5.wav,182.05317595798988,2.mp4,182.05317595798988,1,1,2024-10-28_16h45.51.295,visual,2024.1.5,120.18081263990995,
4_con_singledot,0.25,4,8,0,144,3,,,,4_con_singledot_image_34.png,34,183.89179293336346,184.1449356375262,,,,,1,1,2024-10-28_16h45.51.295,visual,2024.1.5,120.18081263990995,
6_con_totaldot,0.25,6,8,1,145,11,,,,6_con_totaldot_image_65.png,65,184.25330832847393,184.50354422051458,,,,,1,1,2024-10-28_16h45.51.295,visual,2024.1.5,120.18081263990995,
5_con_totaldot,0.25,5,8,2,146,10,,,,5_con_totaldot_image_25.png,25,184.61039670349564,184.86047417849767,,,,,1,1,2024-10-28_16h45.51.295,visual,2024.1.5,120.18081263990995,
6_con_singledot,0.25,6,8,3,147,5,,,,6_con_singledot_image_15.png,15,184.96901507852598,185.21965030352584,,,,,1,1,2024-10-28_16h45.51.295,visual,2024.1.5,120.18081263990995,
6_con_circum,0.25,6,8,4,148,17,,,,6_con_circum_image_41.png,41,185.32638353751972,185.5774962624302,,,,,1,1,2024-10-28_16h45.51.295,visual,2024.1.5,120.18081263990995,
1_con_circum,0.25,1,8,5,149,12,,,,1_con_circum_image_25.png,25,185.68645049552433,185.94057501251808,,,,,1,1,2024-10-28_16h45.51.295,visual,2024.1.5,120.18081263990995,
3_con_totaldot,0.25,3,8,6,150,8,,,,3_con_totaldot_image_65.png,65,186.0474518285133,186.3030283034779,,,,,1,1,2024-10-28_16h45.51.295,visual,2024.1.5,120.18081263990995,
2_con_totaldot,0.25,2,8,7,151,7,,,,2_con_totaldot_image_18.png,18,186.40969357851426,186.66035188750828,,,,,1,1,2024-10-28_16h45.51.295,visual,2024.1.5,120.18081263990995,
4_con_totaldot,0.25,4,8,8,152,9,,,,4_con_totaldot_image_52.png,52,186.76986516246106,187.0199133875314,,,,,1,1,2024-10-28_16h45.51.295,visual,2024.1.5,120.18081263990995,
2_con_singledot,0.25,2,8,9,153,1,,,,2_con_singledot_image_54.png,54,187.12642857853788,187.37724934546276,,,,,1,1,2024-10-28_16h45.51.295,visual,2024.1.5,120.18081263990995,
1_con_totaldot,0.25,1,8,10,154,6,,,,1_con_totaldot_image_41.png,41,187.4859602875309,187.73631663741543,,,,,1,1,2024-10-28_16h45.51.295,visual,2024.1.5,120.18081263990995,
5_con_singledot,0.25,5,8,11,155,4,,,,5_con_singledot_image_63.png,63,187.84294149549677,188.0937132625142,,,,,1,1,2024-10-28_16h45.51.295,visual,2024.1.5,120.18081263990995,
4_con_circum,0.25,4,8,12,156,15,,,,4_con_circum_image_61.png,61,188.20280645347665,188.45344151246826,,,,,1,1,2024-10-28_16h45.51.295,visual,2024.1.5,120.18081263990995,
5_con_circum,0.25,5,8,13,157,16,,,,5_con_circum_image_62.png,62,188.56033545350655,188.81173351248725,,,,,1,1,2024-10-28_16h45.51.295,visual,2024.1.5,120.18081263990995,
3_con_singledot,0.25,3,8,14,158,2,,,,3_con_singledot_image_45.png,45,188.92683687051758,189.1777791374363,,,,,1,1,2024-10-28_16h45.51.295,visual,2024.1.5,120.18081263990995,
2_con_circum,0.25,2,8,15,159,13,,,,2_con_circum_image_51.png,51,189.28694016255903,189.5371248875046,,,,,1,1,2024-10-28_16h45.51.295,visual,2024.1.5,120.18081263990995,
3_con_circum,0.25,3,8,16,160,14,,,,3_con_circum_image_41.png,41,189.6437525785528,189.89425355351995,,,,,1,1,2024-10-28_16h45.51.295,visual,2024.1.5,120.18081263990995,
1_con_singledot,0.25,1,8,17,161,0,,,,1_con_singledot_image_13.png,13,190.00202757855877,190.25381188751197,3.wav,190.3532941659214,5.mp4,190.3532941659214,1,1,2024-10-28_16h45.51.295,visual,2024.1.5,120.18081263990995,
2_con_circum,0.25,2,9,0,162,13,,,,2_con_circum_image_53.png,53,192.20724189132451,192.46114538742694,,,,,1,1,2024-10-28_16h45.51.295,visual,2024.1.5,120.18081263990995,
6_con_singledot,0.25,6,9,1,163,5,,,,6_con_singledot_image_17.png,17,192.56926353755406,192.8203831374878,,,,,1,1,2024-10-28_16h45.51.295,visual,2024.1.5,120.18081263990995,
6_con_circum,0.25,6,9,2,164,17,,,,6_con_circum_image_14.png,14,192.9269380785059,193.17893388743977,,,,,1,1,2024-10-28_16h45.51.295,visual,2024.1.5,120.18081263990995,
1_con_singledot,0.25,1,9,3,165,0,,,,1_con_singledot_image_56.png,56,193.2855429954594,193.53705192850902,,,,,1,1,2024-10-28_16h45.51.295,visual,2024.1.5,120.18081263990995,
2_con_singledot,0.25,2,9,4,166,1,,,,2_con_singledot_image_5.png,5,193.64366420349106,193.89399022043216,,,,,1,1,2024-10-28_16h45.51.295,visual,2024.1.5,120.18081263990995,
4_con_singledot,0.25,4,9,5,167,3,,,,4_con_singledot_image_12.png,12,194.00255328756757,194.25317630351054,,,,,1,1,2024-10-28_16h45.51.295,visual,2024.1.5,120.18081263990995,
5_con_circum,0.25,5,9,6,168,16,,,,5_con_circum_image_3.png,3,194.35979662046302,194.61146026249043,,,,,1,1,2024-10-28_16h45.51.295,visual,2024.1.5,120.18081263990995,
1_con_totaldot,0.25,1,9,7,169,6,,,,1_con_totaldot_image_37.png,37,194.71897449556272,194.96968388748354,,,,,1,1,2024-10-28_16h45.51.295,visual,2024.1.5,120.18081263990995,
5_con_singledot,0.25,5,9,8,170,4,,,,5_con_singledot_image_66.png,66,195.0762856204761,195.32862092850263,,,,,1,1,2024-10-28_16h45.51.295,visual,2024.1.5,120.18081263990995,
1_con_circum,0.25,1,9,9,171,12,,,,1_con_circum_image_64.png,64,195.4355808284832,195.6874906784389,,,,,1,1,2024-10-28_16h45.51.295,visual,2024.1.5,120.18081263990995,
2_con_totaldot,0.25,2,9,10,172,7,,,,2_con_totaldot_image_62.png,62,195.79398441247176,196.04397788741625,,,,,1,1,2024-10-28_16h45.51.295,visual,2024.1.5,120.18081263990995,
4_con_totaldot,0.25,4,9,11,173,9,,,,4_con_totaldot_image_8.png,8,196.15308178754057,196.4035646784352,,,,,1,1,2024-10-28_16h45.51.295,visual,2024.1.5,120.18081263990995,
3_con_singledot,0.25,3,9,12,174,2,,,,3_con_singledot_image_67.png,67,196.51002762049902,196.76155326252336,,,,,1,1,2024-10-28_16h45.51.295,visual,2024.1.5,120.18081263990995,
6_con_totaldot,0.25,6,9,13,175,11,,,,6_con_totaldot_image_25.png,25,196.8695546625182,197.12081888741812,,,,,1,1,2024-10-28_16h45.51.295,visual,2024.1.5,120.18081263990995,
4_con_circum,0.25,4,9,14,176,15,,,,4_con_circum_image_54.png,54,197.2266757035628,197.47719509543384,,,,,1,1,2024-10-28_16h45.51.295,visual,2024.1.5,120.18081263990995,
3_con_totaldot,0.25,3,9,15,177,8,,,,3_con_totaldot_image_60.png,60,197.5867165784817,197.8364149705041,,,,,1,1,2024-10-28_16h45.51.295,visual,2024.1.5,120.18081263990995,
3_con_circum,0.25,3,9,16,178,14,,,,3_con_circum_image_37.png,37,197.9432324124733,198.1948848034255,,,,,1,1,2024-10-28_16h45.51.295,visual,2024.1.5,120.18081263990995,
5_con_totaldot,0.25,5,9,17,179,10,,,,5_con_totaldot_image_6.png,6,198.30469474548008,198.554203428491,2.wav,198.65293808293063,4.mp4,198.65293808293063,1,1,2024-10-28_16h45.51.295,visual,2024.1.5,120.18081263990995,
2_con_circum,0.25,2,10,0,180,13,,,,2_con_circum_image_60.png,60,200.49254789135884,200.74423663741908,,,,,1,1,2024-10-28_16h45.51.295,visual,2024.1.5,120.18081263990995,
5_con_totaldot,0.25,5,10,1,181,10,,,,5_con_totaldot_image_30.png,30,200.85293612049426,201.1034677625168,,,,,1,1,2024-10-28_16h45.51.295,visual,2024.1.5,120.18081263990995,
1_con_circum,0.25,1,10,2,182,12,,,,1_con_circum_image_21.png,21,201.21027516250032,201.46211901241912,,,,,1,1,2024-10-28_16h45.51.295,visual,2024.1.5,120.18081263990995,
2_con_totaldot,0.25,2,10,3,183,7,,,,2_con_totaldot_image_68.png,68,201.56895691251847,201.81986192851326,,,,,1,1,2024-10-28_16h45.51.295,visual,2024.1.5,120.18081263990995,
5_con_singledot,0.25,5,10,4,184,4,,,,5_con_singledot_image_52.png,52,201.92639599556568,202.17787217842414,,,,,1,1,2024-10-28_16h45.51.295,visual,2024.1.5,120.18081263990995,
4_con_singledot,0.25,4,10,5,185,3,,,,4_con_singledot_image_15.png,15,202.28690324551425,202.53655480341985,,,,,1,1,2024-10-28_16h45.51.295,visual,2024.1.5,120.18081263990995,
1_con_singledot,0.25,1,10,6,186,0,,,,1_con_singledot_image_19.png,19,202.6430129955057,202.89422455341554,,,,,1,1,2024-10-28_16h45.51.295,visual,2024.1.5,120.18081263990995,
2_con_singledot,0.25,2,10,7,187,1,,,,2_con_singledot_image_70.png,70,203.00227382851298,203.2536946374923,,,,,1,1,2024-10-28_16h45.51.295,visual,2024.1.5,120.18081263990995,
5_con_circum,0.25,5,10,8,188,16,,,,5_con_circum_image_38.png,38,203.3595607455587,203.61130363743285,,,,,1,1,2024-10-28_16h45.51.295,visual,2024.1.5,120.18081263990995,
6_con_circum,0.25,6,10,9,189,17,,,,6_con_circum_image_19.png,19,203.72016316247172,203.9704908454325,,,,,1,1,2024-10-28_16h45.51.295,visual,2024.1.5,120.18081263990995,
6_con_singledot,0.25,6,10,10,190,5,,,,6_con_singledot_image_41.png,41,204.07710624546743,204.32784280348568,,,,,1,1,2024-10-28_16h45.51.295,visual,2024.1.5,120.18081263990995,
1_con_totaldot,0.25,1,10,11,191,6,,,,1_con_totaldot_image_27.png,27,204.43605053753126,204.68665805347263,,,,,1,1,2024-10-28_16h45.51.295,visual,2024.1.5,120.18081263990995,
3_con_totaldot,0.25,3,10,12,192,8,,,,3_con_totaldot_image_34.png,34,204.79314670353196,205.0445318454178,,,,,1,1,2024-10-28_16h45.51.295,visual,2024.1.5,120.18081263990995,
6_con_totaldot,0.25,6,10,13,193,11,,,,6_con_totaldot_image_44.png,44,205.1522879535565,205.40378067845012,,,,,1,1,2024-10-28_16h45.51.295,visual,2024.1.5,120.18081263990995,
3_con_circum,0.25,3,10,14,194,14,,,,3_con_circum_image_45.png,45,205.51027007857337,205.7617270125076,,,,,1,1,2024-10-28_16h45.51.295,visual,2024.1.5,120.18081263990995,
4_con_circum,0.25,4,10,15,195,15,,,,4_con_circum_image_68.png,68,205.86895524549763,206.1199150535278,,,,,1,1,2024-10-28_16h45.51.295,visual,2024.1.5,120.18081263990995,
3_con_singledot,0.25,3,10,16,196,2,,,,3_con_singledot_image_47.png,47,206.22645987048745,206.4775485124439,,,,,1,1,2024-10-28_16h45.51.295,visual,2024.1.5,120.18081263990995,
4_con_totaldot,0.25,4,10,17,197,9,,,,4_con_totaldot_image_56.png,56,206.58573674552608,206.83667684549,2.wav,206.93605066591408,12.mp4,206.93605066591408,1,1,2024-10-28_16h45.51.295,visual,2024.1.5,120.18081263990995,
2_con_totaldot,0.25,2,11,0,198,7,,,,2_con_totaldot_image_4.png,4,208.78953647534362,209.0449480124982,,,,,1,1,2024-10-28_16h45.51.295,visual,2024.1.5,120.18081263990995,
6_con_totaldot,0.25,6,11,1,199,11,,,,6_con_totaldot_image_38.png,38,209.15289791256654,209.4034553454723,,,,,1,1,2024-10-28_16h45.51.295,visual,2024.1.5,120.18081263990995,
4_con_circum,0.25,4,11,2,200,15,,,,4_con_circum_image_7.png,7,209.51017928754445,209.76085776246617,,,,,1,1,2024-10-28_16h45.51.295,visual,2024.1.5,120.18081263990995,
4_con_singledot,0.25,4,11,3,201,3,,,,4_con_singledot_image_52.png,52,209.870253370516,210.12073742847423,,,,,1,1,2024-10-28_16h45.51.295,visual,2024.1.5,120.18081263990995,
6_con_singledot,0.25,6,11,4,202,5,,,,6_con_singledot_image_29.png,29,210.22722370354458,210.47857080346438,,,,,1,1,2024-10-28_16h45.51.295,visual,2024.1.5,120.18081263990995,
1_con_singledot,0.25,1,11,5,203,0,,,,1_con_singledot_image_49.png,49,210.5867481625406,210.83695267844013,,,,,1,1,2024-10-28_16h45.51.295,visual,2024.1.5,120.18081263990995,
2_con_singledot,0.25,2,11,6,204,1,,,,2_con_singledot_image_58.png,58,210.94343474556226,211.1943142205011,,,,,1,1,2024-10-28_16h45.51.295,visual,2024.1.5,120.18081263990995,
5_con_circum,0.25,5,11,7,205,16,,,,5_con_circum_image_70.png,70,211.3036485375138,211.5534616375109,,,,,1,1,2024-10-28_16h45.51.295,visual,2024.1.5,120.18081263990995,
4_con_totaldot,0.25,4,11,8,206,9,,,,4_con_totaldot_image_66.png,66,211.65993637046776,211.9108579284977,,,,,1,1,2024-10-28_16h45.51.295,visual,2024.1.5,120.18081263990995,
2_con_circum,0.25,2,11,9,207,13,,,,2_con_circum_image_49.png,49,212.0199383285595,212.27017184549476,,,,,1,1,2024-10-28_16h45.51.295,visual,2024.1.5,120.18081263990995,
1_con_totaldot,0.25,1,11,10,208,6,,,,1_con_totaldot_image_54.png,54,212.37681737055536,212.6280777624808,,,,,1,1,2024-10-28_16h45.51.295,visual,2024.1.5,120.18081263990995,
6_con_circum,0.25,6,11,11,209,17,,,,6_con_circum_image_40.png,40,212.73579870352987,212.9874880954623,,,,,1,1,2024-10-28_16h45.51.295,visual,2024.1.5,120.18081263990995,
3_con_circum,0.25,3,11,12,210,14,,,,3_con_circum_image_33.png,33,213.0939710785402,213.34507851249072,,,,,1,1,2024-10-28_16h45.51.295,visual,2024.1.5,120.18081263990995,
5_con_singledot,0.25,5,11,13,211,4,,,,5_con_singledot_image_21.png,21,213.45335662052966,213.70345963751896,,,,,1,1,2024-10-28_16h45.51.295,visual,2024.1.5,120.18081263990995,
1_con_circum,0.25,1,11,14,212,12,,,,1_con_circum_image_70.png,70,213.81001987054478,214.0616446785163,,,,,1,1,2024-10-28_16h45.51.295,visual,2024.1.5,120.18081263990995,
3_con_totaldot,0.25,3,11,15,213,8,,,,3_con_totaldot_image_11.png,11,214.16954962050076,214.42056188748683,,,,,1,1,2024-10-28_16h45.51.295,visual,2024.1.5,120.18081263990995,
3_con_singledot,0.25,3,11,16,214,2,,,,3_con_singledot_image_49.png,49,214.52710012046154,214.77834092841948,,,,,1,1,2024-10-28_16h45.51.295,visual,2024.1.5,120.18081263990995,
5_con_totaldot,0.25,5,11,17,215,10,,,,5_con_totaldot_image_53.png,53,214.8866157455137,215.13758209550286,5.wav,215.23709175002296,3.mp4,215.23709175002296,1,1,2024-10-28_16h45.51.295,visual,2024.1.5,120.18081263990995,
1_con_circum,0.25,1,12,0,216,12,,,,1_con_circum_image_37.png,37,217.09392747529782,217.34491767843718,,,,,1,1,2024-10-28_16h45.51.295,visual,2024.1.5,120.18081263990995,
2_con_singledot,0.25,2,12,1,217,1,,,,2_con_singledot_image_37.png,37,217.4525886205025,217.703648387501,,,,,1,1,2024-10-28_16h45.51.295,visual,2024.1.5,120.18081263990995,
6_con_totaldot,0.25,6,12,2,218,11,,,,6_con_totaldot_image_39.png,39,217.81021078748162,218.06198022041934,,,,,1,1,2024-10-28_16h45.51.295,visual,2024.1.5,120.18081263990995,
2_con_circum,0.25,2,12,3,219,13,,,,2_con_circum_image_56.png,56,218.16915228755678,218.42015397052745,,,,,1,1,2024-10-28_16h45.51.295,visual,2024.1.5,120.18081263990995,
5_con_totaldot,0.25,5,12,4,220,10,,,,5_con_totaldot_image_38.png,38,218.52676012055016,218.77757322047836,,,,,1,1,2024-10-28_16h45.51.295,visual,2024.1.5,120.18081263990995,
1_con_singledot,0.25,1,12,5,221,0,,,,1_con_singledot_image_7.png,7,218.88684253746177,219.13680117849725,,,,,1,1,2024-10-28_16h45.51.295,visual,2024.1.5,120.18081263990995,
3_con_totaldot,0.25,3,12,6,222,8,,,,3_con_totaldot_image_58.png,58,219.2433437875239,219.49437897051683,,,,,1,1,2024-10-28_16h45.51.295,visual,2024.1.5,120.18081263990995,
5_con_singledot,0.25,5,12,7,223,4,,,,5_con_singledot_image_55.png,55,219.60330266251694,219.85437934547662,,,,,1,1,2024-10-28_16h45.51.295,visual,2024.1.5,120.18081263990995,
4_con_circum,0.25,4,12,8,224,15,,,,4_con_circum_image_34.png,34,219.96088107852265,220.2112125534797,,,,,1,1,2024-10-28_16h45.51.295,visual,2024.1.5,120.18081263990995,
4_con_totaldot,0.25,4,12,9,225,9,,,,4_con_totaldot_image_50.png,50,220.31926445350982,220.57073130346834,,,,,1,1,2024-10-28_16h45.51.295,visual,2024.1.5,120.18081263990995,
4_con_singledot,0.25,4,12,10,226,3,,,,4_con_singledot_image_38.png,38,220.67722691248636,220.92819134546443,,,,,1,1,2024-10-28_16h45.51.295,visual,2024.1.5,120.18081263990995,
3_con_circum,0.25,3,12,11,227,14,,,,3_con_circum_image_67.png,67,221.03640178756322,221.28763526252004,,,,,1,1,2024-10-28_16h45.51.295,visual,2024.1.5,120.18081263990995,
3_con_singledot,0.25,3,12,12,228,2,,,,3_con_singledot_image_61.png,61,221.39424266249407,221.64430526252835,,,,,1,1,2024-10-28_16h45.51.295,visual,2024.1.5,120.18081263990995,
6_con_circum,0.25,6,12,13,229,17,,,,6_con_circum_image_4.png,4,221.75419703756924,222.0045963034965,,,,,1,1,2024-10-28_16h45.51.295,visual,2024.1.5,120.18081263990995,
6_con_singledot,0.25,6,12,14,230,5,,,,6_con_singledot_image_21.png,21,222.1111332455417,222.36043788741807,,,,,1,1,2024-10-28_16h45.51.295,visual,2024.1.5,120.18081263990995,
5_con_circum,0.25,5,12,15,231,16,,,,5_con_circum_image_68.png,68,222.47054091249592,222.72030326251405,,,,,1,1,2024-10-28_16h45.51.295,visual,2024.1.5,120.18081263990995,
1_con_totaldot,0.25,1,12,16,232,6,,,,1_con_totaldot_image_29.png,29,222.82696062049362,223.07766876246313,,,,,1,1,2024-10-28_16h45.51.295,visual,2024.1.5,120.18081263990995,
2_con_totaldot,0.25,2,12,17,233,7,,,,2_con_totaldot_image_49.png,49,223.18600770356133,223.43683976242318,2.wav,223.53653437492903,3.mp4,223.53653437492903,1,1,2024-10-28_16h45.51.295,visual,2024.1.5,120.18081263990995,
6_con_totaldot,0.25,6,13,0,234,11,,,,6_con_totaldot_image_49.png,49,225.3845323503716,225.6374711784767,,,,,1,1,2024-10-28_16h45.51.295,visual,2024.1.5,120.18081263990995,
5_con_circum,0.25,5,13,1,235,16,,,,5_con_circum_image_30.png,30,225.7444768285146,225.99475555347743,,,,,1,1,2024-10-28_16h45.51.295,visual,2024.1.5,120.18081263990995,
3_con_singledot,0.25,3,13,2,236,2,,,,3_con_singledot_image_2.png,2,226.1027628284879,226.35373176243155,,,,,1,1,2024-10-28_16h45.51.295,visual,2024.1.5,120.18081263990995,
5_con_totaldot,0.25,5,13,3,237,10,,,,5_con_totaldot_image_3.png,3,226.46027062055654,226.71110392843838,,,,,1,1,2024-10-28_16h45.51.295,visual,2024.1.5,120.18081263990995,
1_con_totaldot,0.25,1,13,4,238,6,,,,1_con_totaldot_image_12.png,12,226.82068395349197,227.0712920125108,,,,,1,1,2024-10-28_16h45.51.295,visual,2024.1.5,120.18081263990995,
3_con_totaldot,0.25,3,13,5,239,8,,,,3_con_totaldot_image_48.png,48,227.17740578753873,227.42834347048773,,,,,1,1,2024-10-28_16h45.51.295,visual,2024.1.5,120.18081263990995,
3_con_circum,0.25,3,13,6,240,14,,,,3_con_circum_image_3.png,3,227.53603624554816,227.7871953035239,,,,,1,1,2024-10-28_16h45.51.295,visual,2024.1.5,120.18081263990995,
2_con_singledot,0.25,2,13,7,241,1,,,,2_con_singledot_image_67.png,67,227.89378945357166,228.1450387204997,,,,,1,1,2024-10-28_16h45.51.295,visual,2024.1.5,120.18081263990995,
5_con_singledot,0.25,5,13,8,242,4,,,,5_con_singledot_image_42.png,42,228.25360653749667,228.5042729704175,,,,,1,1,2024-10-28_16h45.51.295,visual,2024.1.5,120.18081263990995,
4_con_singledot,0.25,4,13,9,243,3,,,,4_con_singledot_image_59.png,59,228.61079862052574,228.8616624285234,,,,,1,1,2024-10-28_16h45.51.295,visual,2024.1.5,120.18081263990995,
6_con_circum,0.25,6,13,10,244,17,,,,6_con_circum_image_2.png,2,228.97082153756637,229.2212773454841,,,,,1,1,2024-10-28_16h45.51.295,visual,2024.1.5,120.18081263990995,
2_con_circum,0.25,2,13,11,245,13,,,,2_con_circum_image_26.png,26,229.3278022035025,229.5783920954447,,,,,1,1,2024-10-28_16h45.51.295,visual,2024.1.5,120.18081263990995,
4_con_totaldot,0.25,4,13,12,246,9,,,,4_con_totaldot_image_2.png,2,229.68609987050294,229.9370679284213,,,,,1,1,2024-10-28_16h45.51.295,visual,2024.1.5,120.18081263990995,
1_con_circum,0.25,1,13,13,247,12,,,,1_con_circum_image_51.png,51,230.04366582855582,230.2945504704723,,,,,1,1,2024-10-28_16h45.51.295,visual,2024.1.5,120.18081263990995,
2_con_totaldot,0.25,2,13,14,248,7,,,,2_con_totaldot_image_60.png,60,230.40396724550519,230.6538894285215,,,,,1,1,2024-10-28_16h45.51.295,visual,2024.1.5,120.18081263990995,
6_con_singledot,0.25,6,13,15,249,5,,,,6_con_singledot_image_55.png,55,230.7605726624839,231.0113574704621,,,,,1,1,2024-10-28_16h45.51.295,visual,2024.1.5,120.18081263990995,
1_con_singledot,0.25,1,13,16,250,0,,,,1_con_singledot_image_40.png,40,231.12044212049804,231.37038801242596,,,,,1,1,2024-10-28_16h45.51.295,visual,2024.1.5,120.18081263990995,
4_con_circum,0.25,4,13,17,251,15,,,,4_con_circum_image_8.png,8,231.4769695785595,231.7278835124336,3.wav,231.83024437492713,7.mp4,231.83024437492713,1,1,2024-10-28_16h45.51.295,visual,2024.1.5,120.18081263990995,
3_con_circum,0.25,3,14,0,252,14,,,,3_con_circum_image_32.png,32,233.66141151627525,233.9117740124231,,,,,1,1,2024-10-28_16h45.51.295,visual,2024.1.5,120.18081263990995,
1_con_totaldot,0.25,1,14,1,253,6,,,,1_con_totaldot_image_11.png,11,234.02002557846717,234.27042722043115,,,,,1,1,2024-10-28_16h45.51.295,visual,2024.1.5,120.18081263990995,
6_con_totaldot,0.25,6,14,2,254,11,,,,6_con_totaldot_image_70.png,70,234.3768817874603,234.62818497051484,,,,,1,1,2024-10-28_16h45.51.295,visual,2024.1.5,120.18081263990995,
4_con_totaldot,0.25,4,14,3,255,9,,,,4_con_totaldot_image_11.png,11,234.73659332855604,234.98788872051517,,,,,1,1,2024-10-28_16h45.51.295,visual,2024.1.5,120.18081263990995,
2_con_singledot,0.25,2,14,4,256,1,,,,2_con_singledot_image_1.png,1,235.0945357874967,235.34506126241757,,,,,1,1,2024-10-28_16h45.51.295,visual,2024.1.5,120.18081263990995,
6_con_singledot,0.25,6,14,5,257,5,,,,6_con_singledot_image_5.png,5,235.45332470352295,235.7038120954996,,,,,1,1,2024-10-28_16h45.51.295,visual,2024.1.5,120.18081263990995,
1_con_circum,0.25,1,14,6,258,12,,,,1_con_circum_image_17.png,17,235.81037507848814,236.0612658875063,,,,,1,1,2024-10-28_16h45.51.295,visual,2024.1.5,120.18081263990995,
6_con_circum,0.25,6,14,7,259,17,,,,6_con_circum_image_64.png,64,236.1701294535538,236.42106063750106,,,,,1,1,2024-10-28_16h45.51.295,visual,2024.1.5,120.18081263990995,
3_con_singledot,0.25,3,14,8,260,2,,,,3_con_singledot_image_7.png,7,236.52692457849625,236.7784720535157,,,,,1,1,2024-10-28_16h45.51.295,visual,2024.1.5,120.18081263990995,
2_con_totaldot,0.25,2,14,9,261,7,,,,2_con_totaldot_image_50.png,50,236.88628903755452,237.13819288746453,,,,,1,1,2024-10-28_16h45.51.295,visual,2024.1.5,120.18081263990995,
4_con_singledot,0.25,4,14,10,262,3,,,,4_con_singledot_image_11.png,11,237.24628378755878,237.49564197047147,,,,,1,1,2024-10-28_16h45.51.295,visual,2024.1.5,120.18081263990995,
5_con_totaldot,0.25,5,14,11,263,10,,,,5_con_totaldot_image_17.png,17,237.60379803753457,237.85428847051224,,,,,1,1,2024-10-28_16h45.51.295,visual,2024.1.5,120.18081263990995,
1_con_singledot,0.25,1,14,12,264,0,,,,1_con_singledot_image_51.png,51,237.96093941249418,238.21119538745842,,,,,1,1,2024-10-28_16h45.51.295,visual,2024.1.5,120.18081263990995,
4_con_circum,0.25,4,14,13,265,15,,,,4_con_circum_image_48.png,48,238.32116132848896,238.57098784546832,,,,,1,1,2024-10-28_16h45.51.295,visual,2024.1.5,120.18081263990995,
3_con_totaldot,0.25,3,14,14,266,8,,,,3_con_totaldot_image_61.png,61,238.6774976204848,238.92846438747364,,,,,1,1,2024-10-28_16h45.51.295,visual,2024.1.5,120.18081263990995,
5_con_singledot,0.25,5,14,15,267,4,,,,5_con_singledot_image_4.png,4,239.03685132847167,239.28722126251085,,,,,1,1,2024-10-28_16h45.51.295,visual,2024.1.5,120.18081263990995,
2_con_circum,0.25,2,14,16,268,13,,,,2_con_circum_image_28.png,28,239.39386662051547,239.64482951250392,,,,,1,1,2024-10-28_16h45.51.295,visual,2024.1.5,120.18081263990995,
5_con_circum,0.25,5,14,17,269,16,,,,5_con_circum_image_42.png,42,239.75304174553602,240.00491559545043,1.wav,240.10435720800888,11.mp4,240.10435720800888,1,1,2024-10-28_16h45.51.295,visual,2024.1.5,120.18081263990995,
4_con_circum,0.25,4,15,0,270,15,,,,4_con_circum_image_11.png,11,241.9283145163441,242.17862992843146,,,,,1,1,2024-10-28_16h45.51.295,visual,2024.1.5,120.18081263990995,
4_con_singledot,0.25,4,15,1,271,3,,,,4_con_singledot_image_64.png,64,242.28685603747144,242.53780105342156,,,,,1,1,2024-10-28_16h45.51.295,visual,2024.1.5,120.18081263990995,
2_con_totaldot,0.25,2,15,2,272,7,,,,2_con_totaldot_image_15.png,15,242.64362378746736,242.89566230347845,,,,,1,1,2024-10-28_16h45.51.295,visual,2024.1.5,120.18081263990995,
6_con_circum,0.25,6,15,3,273,17,,,,6_con_circum_image_66.png,66,243.00386049554217,243.254015137488,,,,,1,1,2024-10-28_16h45.51.295,visual,2024.1.5,120.18081263990995,
6_con_totaldot,0.25,6,15,4,274,11,,,,6_con_totaldot_image_48.png,48,243.36046899554785,243.61230567847377,,,,,1,1,2024-10-28_16h45.51.295,visual,2024.1.5,120.18081263990995,
3_con_totaldot,0.25,3,15,5,275,8,,,,3_con_totaldot_image_44.png,44,243.71982907855417,243.97612180344294,,,,,1,1,2024-10-28_16h45.51.295,visual,2024.1.5,120.18081263990995,
3_con_singledot,0.25,3,15,6,276,2,,,,3_con_singledot_image_30.png,30,244.08704657854977,244.33739305350463,,,,,1,1,2024-10-28_16h45.51.295,visual,2024.1.5,120.18081263990995,
1_con_totaldot,0.25,1,15,7,277,6,,,,1_con_totaldot_image_23.png,23,244.4440228285035,244.69601176253053,,,,,1,1,2024-10-28_16h45.51.295,visual,2024.1.5,120.18081263990995,
2_con_singledot,0.25,2,15,8,278,1,,,,2_con_singledot_image_65.png,65,244.8049002875574,245.05399334551765,,,,,1,1,2024-10-28_16h45.51.295,visual,2024.1.5,120.18081263990995,
5_con_singledot,0.25,5,15,9,279,4,,,,5_con_singledot_image_25.png,25,245.1605927875731,245.4109272624366,,,,,1,1,2024-10-28_16h45.51.295,visual,2024.1.5,120.18081263990995,
3_con_circum,0.25,3,15,10,280,14,,,,3_con_circum_image_61.png,61,245.52054232850205,245.7713177624857,,,,,1,1,2024-10-28_16h45.51.295,visual,2024.1.5,120.18081263990995,
5_con_totaldot,0.25,5,15,11,281,10,,,,5_con_totaldot_image_43.png,43,245.8779650784796,246.12804517853073,,,,,1,1,2024-10-28_16h45.51.295,visual,2024.1.5,120.18081263990995,
5_con_circum,0.25,5,15,12,282,16,,,,5_con_circum_image_63.png,63,246.23688978750724,246.48749634546692,,,,,1,1,2024-10-28_16h45.51.295,visual,2024.1.5,120.18081263990995,
2_con_circum,0.25,2,15,13,283,13,,,,2_con_circum_image_21.png,21,246.59409191252198,246.84529597049112,,,,,1,1,2024-10-28_16h45.51.295,visual,2024.1.5,120.18081263990995,
1_con_singledot,0.25,1,15,14,284,0,,,,1_con_singledot_image_50.png,50,246.95309549549128,247.20485772045794,,,,,1,1,2024-10-28_16h45.51.295,visual,2024.1.5,120.18081263990995,
6_con_singledot,0.25,6,15,15,285,5,,,,6_con_singledot_image_49.png,49,247.31132099546957,247.56143517843446,,,,,1,1,2024-10-28_16h45.51.295,visual,2024.1.5,120.18081263990995,
1_con_circum,0.25,1,15,16,286,12,,,,1_con_circum_image_7.png,7,247.67077328755985,247.92071426245383,,,,,1,1,2024-10-28_16h45.51.295,visual,2024.1.5,120.18081263990995,
4_con_totaldot,0.25,4,15,17,287,9,,,,4_con_totaldot_image_27.png,27,248.02741474555805,248.27887480349744,2.wav,248.38031920802314,12.mp4,248.38031920802314,1,1,2024-10-28_16h45.51.295,visual,2024.1.5,120.18081263990995,
6_con_totaldot,0.25,6,16,0,288,11,,,,6_con_totaldot_image_12.png,12,250.20617135034408,250.46211567851714,,,,,1,1,2024-10-28_16h45.51.295,visual,2024.1.5,120.18081263990995,
6_con_singledot,0.25,6,16,1,289,5,,,,6_con_singledot_image_30.png,30,250.57025799553375,250.82090397044084,,,,,1,1,2024-10-28_16h45.51.295,visual,2024.1.5,120.18081263990995,
1_con_totaldot,0.25,1,16,2,290,6,,,,1_con_totaldot_image_42.png,42,250.92743699545971,251.1787803874351,,,,,1,1,2024-10-28_16h45.51.295,visual,2024.1.5,120.18081263990995,
4_con_totaldot,0.25,4,16,3,291,9,,,,4_con_totaldot_image_40.png,40,251.28644682853482,251.53743697043973,,,,,1,1,2024-10-28_16h45.51.295,visual,2024.1.5,120.18081263990995,
5_con_circum,0.25,5,16,4,292,16,,,,5_con_circum_image_20.png,20,251.6439605375286,251.89491380348335,,,,,1,1,2024-10-28_16h45.51.295,visual,2024.1.5,120.18081263990995,
2_con_circum,0.25,2,16,5,293,13,,,,2_con_circum_image_50.png,50,252.00389928757212,252.2547010124428,,,,,1,1,2024-10-28_16h45.51.295,visual,2024.1.5,120.18081263990995,
6_con_circum,0.25,6,16,6,294,17,,,,6_con_circum_image_34.png,34,252.3611897875322,252.61234109550713,,,,,1,1,2024-10-28_16h45.51.295,visual,2024.1.5,120.18081263990995,
5_con_totaldot,0.25,5,16,7,295,10,,,,5_con_totaldot_image_5.png,5,252.7204421625007,252.97129097050055,,,,,1,1,2024-10-28_16h45.51.295,visual,2024.1.5,120.18081263990995,
3_con_singledot,0.25,3,16,8,296,2,,,,3_con_singledot_image_36.png,36,253.07787262056954,253.3282491374295,,,,,1,1,2024-10-28_16h45.51.295,visual,2024.1.5,120.18081263990995,
4_con_singledot,0.25,4,16,9,297,3,,,,4_con_singledot_image_69.png,69,253.4371854535071,253.68828051250892,,,,,1,1,2024-10-28_16h45.51.295,visual,2024.1.5,120.18081263990995,
5_con_singledot,0.25,5,16,10,298,4,,,,5_con_singledot_image_14.png,14,253.79499941251706,254.04604538744314,,,,,1,1,2024-10-28_16h45.51.295,visual,2024.1.5,120.18081263990995,
3_con_totaldot,0.25,3,16,11,299,8,,,,3_con_totaldot_image_6.png,6,254.15386403750162,254.4049450954655,,,,,1,1,2024-10-28_16h45.51.295,visual,2024.1.5,120.18081263990995,
2_con_singledot,0.25,2,16,12,300,1,,,,2_con_singledot_image_45.png,45,254.51149441245943,254.76235155346802,,,,,1,1,2024-10-28_16h45.51.295,visual,2024.1.5,120.18081263990995,
1_con_singledot,0.25,1,16,13,301,0,,,,1_con_singledot_image_65.png,65,254.87100282849278,255.12210913752205,,,,,1,1,2024-10-28_16h45.51.295,visual,2024.1.5,120.18081263990995,
3_con_circum,0.25,3,16,14,302,14,,,,3_con_circum_image_5.png,5,255.23087032851763,255.4877654704498,,,,,1,1,2024-10-28_16h45.51.295,visual,2024.1.5,120.18081263990995,
1_con_circum,0.25,1,16,15,303,12,,,,1_con_circum_image_61.png,61,255.5956629954977,255.8450459284242,,,,,1,1,2024-10-28_16h45.51.295,visual,2024.1.5,120.18081263990995,
4_con_circum,0.25,4,16,16,304,15,,,,4_con_circum_image_26.png,26,255.9543794954894,256.20539372046477,,,,,1,1,2024-10-28_16h45.51.295,visual,2024.1.5,120.18081263990995,
2_con_totaldot,0.25,2,16,17,305,7,,,,2_con_totaldot_image_11.png,11,256.31375266253013,256.5716038034763,1.wav,256.67098199995235,14.mp4,256.67098199995235,1,1,2024-10-28_16h45.51.295,visual,2024.1.5,120.18081263990995,
5_con_circum,0.25,5,17,0,306,16,,,,5_con_circum_image_26.png,26,258.4993926832918,258.7547582624713,,,,,1,1,2024-10-28_16h45.51.295,visual,2024.1.5,120.18081263990995,
5_con_singledot,0.25,5,17,1,307,4,,,,5_con_singledot_image_15.png,15,258.86171841251195,259.1124678034568,,,,,1,1,2024-10-28_16h45.51.295,visual,2024.1.5,120.18081263990995,
1_con_totaldot,0.25,1,17,2,308,6,,,,1_con_totaldot_image_15.png,15,259.22010799546257,259.47174951252526,,,,,1,1,2024-10-28_16h45.51.295,visual,2024.1.5,120.18081263990995,
2_con_singledot,0.25,2,17,3,309,1,,,,2_con_singledot_image_63.png,63,259.5783276625676,259.82913584546185,,,,,1,1,2024-10-28_16h45.51.295,visual,2024.1.5,120.18081263990995,
3_con_singledot,0.25,3,17,4,310,2,,,,3_con_singledot_image_41.png,41,259.93684941253156,260.18809313750825,,,,,1,1,2024-10-28_16h45.51.295,visual,2024.1.5,120.18081263990995,
4_con_totaldot,0.25,4,17,5,311,9,,,,4_con_totaldot_image_49.png,49,260.29465195352674,260.5451081784442,,,,,1,1,2024-10-28_16h45.51.295,visual,2024.1.5,120.18081263990995,
3_con_totaldot,0.25,3,17,6,312,8,,,,3_con_totaldot_image_35.png,35,260.6539779955288,260.9091671784874,,,,,1,1,2024-10-28_16h45.51.295,visual,2024.1.5,120.18081263990995,
1_con_circum,0.25,1,17,7,313,12,,,,1_con_circum_image_33.png,33,261.02130074556914,261.2717756784288,,,,,1,1,2024-10-28_16h45.51.295,visual,2024.1.5,120.18081263990995,
6_con_circum,0.25,6,17,8,314,17,,,,6_con_circum_image_37.png,37,261.37824170351956,261.6292719705263,,,,,1,1,2024-10-28_16h45.51.295,visual,2024.1.5,120.18081263990995,
6_con_totaldot,0.25,6,17,9,315,11,,,,6_con_totaldot_image_17.png,17,261.7374792035203,261.98780084545723,,,,,1,1,2024-10-28_16h45.51.295,visual,2024.1.5,120.18081263990995,
4_con_circum,0.25,4,17,10,316,15,,,,4_con_circum_image_32.png,32,262.0943366205552,262.3459934284212,,,,,1,1,2024-10-28_16h45.51.295,visual,2024.1.5,120.18081263990995,
6_con_singledot,0.25,6,17,11,317,5,,,,6_con_singledot_image_13.png,13,262.4539359954884,262.7043001784943,,,,,1,1,2024-10-28_16h45.51.295,visual,2024.1.5,120.18081263990995,
2_con_circum,0.25,2,17,12,318,13,,,,2_con_circum_image_36.png,36,262.8108567454852,263.0623008034192,,,,,1,1,2024-10-28_16h45.51.295,visual,2024.1.5,120.18081263990995,
1_con_singledot,0.25,1,17,13,319,0,,,,1_con_singledot_image_63.png,63,263.17046095351685,263.42150542843154,,,,,1,1,2024-10-28_16h45.51.295,visual,2024.1.5,120.18081263990995,
5_con_totaldot,0.25,5,17,14,320,10,,,,5_con_totaldot_image_68.png,68,263.5280978705501,263.77934784551616,,,,,1,1,2024-10-28_16h45.51.295,visual,2024.1.5,120.18081263990995,
2_con_totaldot,0.25,2,17,15,321,7,,,,2_con_totaldot_image_2.png,2,263.88681620350104,264.1385260124691,,,,,1,1,2024-10-28_16h45.51.295,visual,2024.1.5,120.18081263990995,
4_con_singledot,0.25,4,17,16,322,3,,,,4_con_singledot_image_36.png,36,264.2450295374961,264.4947880125139,,,,,1,1,2024-10-28_16h45.51.295,visual,2024.1.5,120.18081263990995,
3_con_circum,0.25,3,17,17,323,14,,,,3_con_circum_image_46.png,46,264.604211495514,264.85437576244584,4.wav,264.95373558299616,5.mp4,264.95373558299616,1,1,2024-10-28_16h45.51.295,visual,2024.1.5,120.18081263990995,
1_con_singledot,0.25,1,18,0,324,0,,,,1_con_singledot_image_64.png,64,266.7984586003236,267.055046387529,,,,,1,1,2024-10-28_16h45.51.295,visual,2024.1.5,120.18081263990995,
6_con_circum,0.25,6,18,1,325,17,,,,6_con_circum_image_35.png,35,267.1631675785407,267.4124215954682,,,,,1,1,2024-10-28_16h45.51.295,visual,2024.1.5,120.18081263990995,
6_con_totaldot,0.25,6,18,2,326,11,,,,6_con_totaldot_image_6.png,6,267.5203495375113,267.77152026251423,,,,,1,1,2024-10-28_16h45.51.295,visual,2024.1.5,120.18081263990995,
5_con_circum,0.25,5,18,3,327,16,,,,5_con_circum_image_14.png,14,267.87806024556045,268.12940701241604,,,,,1,1,2024-10-28_16h45.51.295,visual,2024.1.5,120.18081263990995,
3_con_singledot,0.25,3,18,4,328,2,,,,3_con_singledot_image_46.png,46,268.23756832852956,268.48790247044525,,,,,1,1,2024-10-28_16h45.51.295,visual,2024.1.5,120.18081263990995,
2_con_circum,0.25,2,18,5,329,13,,,,2_con_circum_image_35.png,35,268.5944093285594,268.8452941785101,,,,,1,1,2024-10-28_16h45.51.295,visual,2024.1.5,120.18081263990995,
4_con_circum,0.25,4,18,6,330,15,,,,4_con_circum_image_36.png,36,268.9546424125088,269.20461301242466,,,,,1,1,2024-10-28_16h45.51.295,visual,2024.1.5,120.18081263990995,
6_con_singledot,0.25,6,18,7,331,5,,,,6_con_singledot_image_56.png,56,269.31129295346324,269.56270384548696,,,,,1,1,2024-10-28_16h45.51.295,visual,2024.1.5,120.18081263990995,
3_con_circum,0.25,3,18,8,332,14,,,,3_con_circum_image_69.png,69,269.6709335785359,269.9217430535238,,,,,1,1,2024-10-28_16h45.51.295,visual,2024.1.5,120.18081263990995,
2_con_singledot,0.25,2,18,9,333,1,,,,2_con_singledot_image_8.png,8,270.0282483705319,270.27896472048013,,,,,1,1,2024-10-28_16h45.51.295,visual,2024.1.5,120.18081263990995,
4_con_singledot,0.25,4,18,10,334,3,,,,4_con_singledot_image_67.png,67,270.3875478705391,270.6382491784636,,,,,1,1,2024-10-28_16h45.51.295,visual,2024.1.5,120.18081263990995,
2_con_totaldot,0.25,2,18,11,335,7,,,,2_con_totaldot_image_34.png,34,270.7446558284806,270.99587013751733,,,,,1,1,2024-10-28_16h45.51.295,visual,2024.1.5,120.18081263990995,
3_con_totaldot,0.25,3,18,12,336,8,,,,3_con_totaldot_image_69.png,69,271.1035769125679,271.35537655341903,,,,,1,1,2024-10-28_16h45.51.295,visual,2024.1.5,120.18081263990995,
5_con_totaldot,0.25,5,18,13,337,10,,,,5_con_totaldot_image_47.png,47,271.4637449535308,271.7222831374267,,,,,1,1,2024-10-28_16h45.51.295,visual,2024.1.5,120.18081263990995,
1_con_totaldot,0.25,1,18,14,338,6,,,,1_con_totaldot_image_53.png,53,271.8304811625508,272.0884522625012,,,,,1,1,2024-10-28_16h45.51.295,visual,2024.1.5,120.18081263990995,
4_con_totaldot,0.25,4,18,15,339,9,,,,4_con_totaldot_image_43.png,43,272.1948803705396,272.4453178454889,,,,,1,1,2024-10-28_16h45.51.295,visual,2024.1.5,120.18081263990995,
5_con_singledot,0.25,5,18,16,340,4,,,,5_con_singledot_image_40.png,40,272.5546939535066,272.8051122205099,,,,,1,1,2024-10-28_16h45.51.295,visual,2024.1.5,120.18081263990995,
1_con_circum,0.25,1,18,17,341,12,,,,1_con_circum_image_3.png,3,272.91164112046823,273.1615413454594,3.wav,273.26444833294954,16.mp4,273.26444833294954,1,1,2024-10-28_16h45.51.295,visual,2024.1.5,120.18081263990995,
5_con_singledot,0.25,5,19,0,342,4,,,,5_con_singledot_image_31.png,31,275.1014313503634,275.3545520124491,,,,,1,1,2024-10-28_16h45.51.295,visual,2024.1.5,120.18081263990995,
1_con_circum,0.25,1,19,1,343,12,,,,1_con_circum_image_67.png,67,275.46124445346646,275.7123215954518,,,,,1,1,2024-10-28_16h45.51.295,visual,2024.1.5,120.18081263990995,
5_con_circum,0.25,5,19,2,344,16,,,,5_con_circum_image_49.png,49,275.82033424547404,276.07119884544517,,,,,1,1,2024-10-28_16h45.51.295,visual,2024.1.5,120.18081263990995,
5_con_totaldot,0.25,5,19,3,345,10,,,,5_con_totaldot_image_67.png,67,276.1777557455003,276.42959780343807,,,,,1,1,2024-10-28_16h45.51.295,visual,2024.1.5,120.18081263990995,
2_con_singledot,0.25,2,19,4,346,1,,,,2_con_singledot_image_20.png,20,276.5376596625661,276.7904863034375,,,,,1,1,2024-10-28_16h45.51.295,visual,2024.1.5,120.18081263990995,
4_con_totaldot,0.25,4,19,5,347,9,,,,4_con_totaldot_image_63.png,63,276.90498149548654,277.1597353034187,,,,,1,1,2024-10-28_16h45.51.295,visual,2024.1.5,120.18081263990995,
6_con_singledot,0.25,6,19,6,348,5,,,,6_con_singledot_image_52.png,52,277.2679483285406,277.52204517850186,,,,,1,1,2024-10-28_16h45.51.295,visual,2024.1.5,120.18081263990995,
4_con_singledot,0.25,4,19,7,349,3,,,,4_con_singledot_image_43.png,43,277.62851782855574,277.8887839704286,,,,,1,1,2024-10-28_16h45.51.295,visual,2024.1.5,120.18081263990995,
3_con_singledot,0.25,3,19,8,350,2,,,,3_con_singledot_image_44.png,44,277.995672745537,278.2453266784316,,,,,1,1,2024-10-28_16h45.51.295,visual,2024.1.5,120.18081263990995,
2_con_totaldot,0.25,2,19,9,351,7,,,,2_con_totaldot_image_31.png,31,278.3544379534665,278.6044893454993,,,,,1,1,2024-10-28_16h45.51.295,visual,2024.1.5,120.18081263990995,
1_con_singledot,0.25,1,19,10,352,0,,,,1_con_singledot_image_22.png,22,278.7110653284704,278.96199501252266,,,,,1,1,2024-10-28_16h45.51.295,visual,2024.1.5,120.18081263990995,
3_con_circum,0.25,3,19,11,353,14,,,,3_con_circum_image_38.png,38,279.07164070350115,279.32214872043113,,,,,1,1,2024-10-28_16h45.51.295,visual,2024.1.5,120.18081263990995,
4_con_circum,0.25,4,19,12,354,15,,,,4_con_circum_image_69.png,69,279.4280162455048,279.68009517847094,,,,,1,1,2024-10-28_16h45.51.295,visual,2024.1.5,120.18081263990995,
1_con_totaldot,0.25,1,19,13,355,6,,,,1_con_totaldot_image_46.png,46,279.7870364125352,280.0379770955071,,,,,1,1,2024-10-28_16h45.51.295,visual,2024.1.5,120.18081263990995,
6_con_circum,0.25,6,19,14,356,17,,,,6_con_circum_image_29.png,29,280.14443378746506,280.3955120124621,,,,,1,1,2024-10-28_16h45.51.295,visual,2024.1.5,120.18081263990995,
2_con_circum,0.25,2,19,15,357,13,,,,2_con_circum_image_63.png,63,280.50406678756696,280.75462438752874,,,,,1,1,2024-10-28_16h45.51.295,visual,2024.1.5,120.18081263990995,
6_con_totaldot,0.25,6,19,16,358,11,,,,6_con_totaldot_image_55.png,55,280.8612847455311,281.11204484552144,,,,,1,1,2024-10-28_16h45.51.295,visual,2024.1.5,120.18081263990995,
3_con_totaldot,0.25,3,19,17,359,8,,,,3_con_totaldot_image_24.png,24,281.2210775375366,281.4713437625207,4.wav,281.57089408300817,11.mp4,281.57089408300817,1,1,2024-10-28_16h45.51.295,visual,2024.1.5,120.18081263990995,
3_con_totaldot,0.25,3,20,0,360,8,,,,3_con_totaldot_image_43.png,43,283.41220726633907,283.6623497624416,,,,,1,1,2024-10-28_16h45.51.295,visual,2024.1.5,120.18081263990995,
1_con_singledot,0.25,1,20,1,361,0,,,,1_con_singledot_image_60.png,60,283.77031453747765,284.02140192843507,,,,,1,1,2024-10-28_16h45.51.295,visual,2024.1.5,120.18081263990995,
5_con_singledot,0.25,5,20,2,362,4,,,,5_con_singledot_image_47.png,47,284.12731057850175,284.378811887512,,,,,1,1,2024-10-28_16h45.51.295,visual,2024.1.5,120.18081263990995,
2_con_circum,0.25,2,20,3,363,13,,,,2_con_circum_image_40.png,40,284.4877734125126,284.73849205351434,,,,,1,1,2024-10-28_16h45.51.295,visual,2024.1.5,120.18081263990995,
5_con_circum,0.25,5,20,4,364,16,,,,5_con_circum_image_8.png,8,284.844998412556,285.09596276252995,,,,,1,1,2024-10-28_16h45.51.295,visual,2024.1.5,120.18081263990995,
5_con_totaldot,0.25,5,20,5,365,10,,,,5_con_totaldot_image_57.png,57,285.2040589534677,285.4556556784548,,,,,1,1,2024-10-28_16h45.51.295,visual,2024.1.5,120.18081263990995,
6_con_circum,0.25,6,20,6,366,17,,,,6_con_circum_image_26.png,26,285.56232032857366,285.81221159552223,,,,,1,1,2024-10-28_16h45.51.295,visual,2024.1.5,120.18081263990995,
6_con_totaldot,0.25,6,20,7,367,11,,,,6_con_totaldot_image_30.png,30,285.9211935375584,286.171381178475,,,,,1,1,2024-10-28_16h45.51.295,visual,2024.1.5,120.18081263990995,
3_con_singledot,0.25,3,20,8,368,2,,,,3_con_singledot_image_32.png,32,286.2779929535696,286.528977470519,,,,,1,1,2024-10-28_16h45.51.295,visual,2024.1.5,120.18081263990995,
2_con_totaldot,0.25,2,20,9,369,7,,,,2_con_totaldot_image_25.png,25,286.6382387875579,286.8880895534996,,,,,1,1,2024-10-28_16h45.51.295,visual,2024.1.5,120.18081263990995,
2_con_singledot,0.25,2,20,10,370,1,,,,2_con_singledot_image_57.png,57,286.99484341256317,287.24553738748654,,,,,1,1,2024-10-28_16h45.51.295,visual,2024.1.5,120.18081263990995,
4_con_singledot,0.25,4,20,11,371,3,,,,4_con_singledot_image_70.png,70,287.35461474549953,287.60469047043006,,,,,1,1,2024-10-28_16h45.51.295,visual,2024.1.5,120.18081263990995,
3_con_circum,0.25,3,20,12,372,14,,,,3_con_circum_image_10.png,10,287.7112262035021,287.9620389704825,,,,,1,1,2024-10-28_16h45.51.295,visual,2024.1.5,120.18081263990995,
6_con_singledot,0.25,6,20,13,373,5,,,,6_con_singledot_image_28.png,28,288.0714404955739,288.32223022046963,,,,,1,1,2024-10-28_16h45.51.295,visual,2024.1.5,120.18081263990995,
1_con_totaldot,0.25,1,20,14,374,6,,,,1_con_totaldot_image_69.png,69,288.42872395357114,288.67887676244135,,,,,1,1,2024-10-28_16h45.51.295,visual,2024.1.5,120.18081263990995,
1_con_circum,0.25,1,20,15,375,12,,,,1_con_circum_image_49.png,49,288.78838582851455,289.03856451243627,,,,,1,1,2024-10-28_16h45.51.295,visual,2024.1.5,120.18081263990995,
4_con_totaldot,0.25,4,20,16,376,9,,,,4_con_totaldot_image_1.png,1,289.14504595347677,289.39577159546315,,,,,1,1,2024-10-28_16h45.51.295,visual,2024.1.5,120.18081263990995,
4_con_circum,0.25,4,20,17,377,15,,,,4_con_circum_image_37.png,37,289.5042565375566,289.7550964284921,4.wav,289.85486891597975,14.mp4,289.85486891597975,1,1,2024-10-28_16h45.51.295,visual,2024.1.5,120.18081263990995,
2_con_totaldot,0.25,2,21,0,378,7,,,,2_con_totaldot_image_19.png,19,291.698802225315,291.9557649704395,,,,,1,1,2024-10-28_16h45.51.295,visual,2024.1.5,120.18081263990995,
1_con_circum,0.25,1,21,1,379,12,,,,1_con_circum_image_65.png,65,292.0624076625332,292.3125184705015,,,,,1,1,2024-10-28_16h45.51.295,visual,2024.1.5,120.18081263990995,
2_con_singledot,0.25,2,21,2,380,1,,,,2_con_singledot_image_27.png,27,292.4213404534617,292.6714130954817,,,,,1,1,2024-10-28_16h45.51.295,visual,2024.1.5,120.18081263990995,
6_con_totaldot,0.25,6,21,3,381,11,,,,6_con_totaldot_image_24.png,24,292.77799953755454,293.0297689704923,,,,,1,1,2024-10-28_16h45.51.295,visual,2024.1.5,120.18081263990995,
5_con_totaldot,0.25,5,21,4,382,10,,,,5_con_totaldot_image_9.png,9,293.1372170784976,293.38845726246944,,,,,1,1,2024-10-28_16h45.51.295,visual,2024.1.5,120.18081263990995,
5_con_circum,0.25,5,21,5,383,16,,,,5_con_circum_image_35.png,35,293.4944280785508,293.74556084552313,,,,,1,1,2024-10-28_16h45.51.295,visual,2024.1.5,120.18081263990995,
5_con_singledot,0.25,5,21,6,384,4,,,,5_con_singledot_image_45.png,45,293.85384062051304,294.1057658035308,,,,,1,1,2024-10-28_16h45.51.295,visual,2024.1.5,120.18081263990995,
1_con_singledot,0.25,1,21,7,385,0,,,,1_con_singledot_image_42.png,42,294.21232495354485,294.46315422041806,,,,,1,1,2024-10-28_16h45.51.295,visual,2024.1.5,120.18081263990995,
4_con_circum,0.25,4,21,8,386,15,,,,4_con_circum_image_1.png,1,294.5705997034907,294.8214770125225,,,,,1,1,2024-10-28_16h45.51.295,visual,2024.1.5,120.18081263990995,
2_con_circum,0.25,2,21,9,387,13,,,,2_con_circum_image_29.png,29,294.927932787477,295.1794258454349,,,,,1,1,2024-10-28_16h45.51.295,visual,2024.1.5,120.18081263990995,
3_con_singledot,0.25,3,21,10,388,2,,,,3_con_singledot_image_63.png,63,295.28767937051595,295.5386397624854,,,,,1,1,2024-10-28_16h45.51.295,visual,2024.1.5,120.18081263990995,
3_con_circum,0.25,3,21,11,389,14,,,,3_con_circum_image_8.png,8,295.64517195350487,295.89681155344005,,,,,1,1,2024-10-28_16h45.51.295,visual,2024.1.5,120.18081263990995,
6_con_circum,0.25,6,21,12,390,17,,,,6_con_circum_image_54.png,54,296.0043914125068,296.25612151243257,,,,,1,1,2024-10-28_16h45.51.295,visual,2024.1.5,120.18081263990995,
4_con_totaldot,0.25,4,21,13,391,9,,,,4_con_totaldot_image_31.png,31,296.3643846204737,296.6228518034797,,,,,1,1,2024-10-28_16h45.51.295,visual,2024.1.5,120.18081263990995,
6_con_singledot,0.25,6,21,14,392,5,,,,6_con_singledot_image_65.png,65,296.7310035785427,296.9881768874358,,,,,1,1,2024-10-28_16h45.51.295,visual,2024.1.5,120.18081263990995,
1_con_totaldot,0.25,1,21,15,393,6,,,,1_con_totaldot_image_59.png,59,297.09569682846774,297.34572847052476,,,,,1,1,2024-10-28_16h45.51.295,visual,2024.1.5,120.18081263990995,
3_con_totaldot,0.25,3,21,16,394,8,,,,3_con_totaldot_image_27.png,27,297.4539430375676,297.7049233455211,,,,,1,1,2024-10-28_16h45.51.295,visual,2024.1.5,120.18081263990995,
4_con_singledot,0.25,4,21,17,395,3,,,,4_con_singledot_image_27.png,27,297.81148524549786,298.06298263748175,1.wav,298.1644459159579,3.mp4,298.1644459159579,1,1,2024-10-28_16h45.51.295,visual,2024.1.5,120.18081263990995,
6_con_circum,0.25,6,22,0,396,17,,,,6_con_circum_image_13.png,13,300.0086406002752,300.26325367849785,,,,,1,1,2024-10-28_16h45.51.295,visual,2024.1.5,120.18081263990995,
4_con_singledot,0.25,4,22,1,397,3,,,,4_con_singledot_image_37.png,37,300.37129570348185,300.6221594284754,,,,,1,1,2024-10-28_16h45.51.295,visual,2024.1.5,120.18081263990995,
5_con_circum,0.25,5,22,2,398,16,,,,5_con_circum_image_55.png,55,300.72875453755256,300.9800559704192,,,,,1,1,2024-10-28_16h45.51.295,visual,2024.1.5,120.18081263990995,
5_con_singledot,0.25,5,22,3,399,4,,,,5_con_singledot_image_70.png,70,301.0882834535092,301.33911555346566,,,,,1,1,2024-10-28_16h45.51.295,visual,2024.1.5,120.18081263990995,
3_con_circum,0.25,3,22,4,400,14,,,,3_con_circum_image_36.png,36,301.4456325375009,301.6972373874625,,,,,1,1,2024-10-28_16h45.51.295,visual,2024.1.5,120.18081263990995,
3_con_singledot,0.25,3,22,5,401,2,,,,3_con_singledot_image_13.png,13,301.8043250785209,302.05573288751765,,,,,1,1,2024-10-28_16h45.51.295,visual,2024.1.5,120.18081263990995,
4_con_totaldot,0.25,4,22,6,402,9,,,,4_con_totaldot_image_60.png,60,302.16236787047234,302.41325397049076,,,,,1,1,2024-10-28_16h45.51.295,visual,2024.1.5,120.18081263990995,
5_con_totaldot,0.25,5,22,7,403,10,,,,5_con_totaldot_image_44.png,44,302.52155995348,302.7716283874353,,,,,1,1,2024-10-28_16h45.51.295,visual,2024.1.5,120.18081263990995,
4_con_circum,0.25,4,22,8,404,15,,,,4_con_circum_image_46.png,46,302.8781436204677,303.12920901242177,,,,,1,1,2024-10-28_16h45.51.295,visual,2024.1.5,120.18081263990995,
2_con_singledot,0.25,2,22,9,405,1,,,,2_con_singledot_image_60.png,60,303.23849432847925,303.48833005344494,,,,,1,1,2024-10-28_16h45.51.295,visual,2024.1.5,120.18081263990995,
1_con_circum,0.25,1,22,10,406,12,,,,1_con_circum_image_63.png,63,303.5950454125646,303.8596143034985,,,,,1,1,2024-10-28_16h45.51.295,visual,2024.1.5,120.18081263990995,
6_con_totaldot,0.25,6,22,11,407,11,,,,6_con_totaldot_image_58.png,58,303.9730712875258,304.2222190954955,,,,,1,1,2024-10-28_16h45.51.295,visual,2024.1.5,120.18081263990995,
3_con_totaldot,0.25,3,22,12,408,8,,,,3_con_totaldot_image_56.png,56,304.3290976204676,304.5797810124233,,,,,1,1,2024-10-28_16h45.51.295,visual,2024.1.5,120.18081263990995,
2_con_circum,0.25,2,22,13,409,13,,,,2_con_circum_image_44.png,44,304.6874794955598,304.93835634544956,,,,,1,1,2024-10-28_16h45.51.295,visual,2024.1.5,120.18081263990995,
1_con_totaldot,0.25,1,22,14,410,6,,,,1_con_totaldot_image_9.png,9,305.0448641205672,305.29647497045806,,,,,1,1,2024-10-28_16h45.51.295,visual,2024.1.5,120.18081263990995,
1_con_singledot,0.25,1,22,15,411,0,,,,1_con_singledot_image_18.png,18,305.40411449552045,305.65537547045386,,,,,1,1,2024-10-28_16h45.51.295,visual,2024.1.5,120.18081263990995,
6_con_singledot,0.25,6,22,16,412,5,,,,6_con_singledot_image_58.png,58,305.76216416249514,306.0127386374399,,,,,1,1,2024-10-28_16h45.51.295,visual,2024.1.5,120.18081263990995,
2_con_totaldot,0.25,2,22,17,413,7,,,,2_con_totaldot_image_30.png,30,306.12068207855333,306.37175322049296,4.wav,306.47123679099604,5.mp4,306.47123679099604,1,1,2024-10-28_16h45.51.295,visual,2024.1.5,120.18081263990995,
4_con_singledot,0.25,4,23,0,414,3,,,,4_con_singledot_image_35.png,35,308.3142630582675,308.56341409548185,,,,,1,1,2024-10-28_16h45.51.295,visual,2024.1.5,120.18081263990995,
2_con_totaldot,0.25,2,23,1,415,7,,,,2_con_totaldot_image_3.png,3,308.6708126624813,308.9218742624391,,,,,1,1,2024-10-28_16h45.51.295,visual,2024.1.5,120.18081263990995,
4_con_totaldot,0.25,4,23,2,416,9,,,,4_con_totaldot_image_18.png,18,309.0284676625393,309.2836948035285,,,,,1,1,2024-10-28_16h45.51.295,visual,2024.1.5,120.18081263990995,
6_con_totaldot,0.25,6,23,3,417,11,,,,6_con_totaldot_image_56.png,56,309.3911144534591,309.6458844704786,,,,,1,1,2024-10-28_16h45.51.295,visual,2024.1.5,120.18081263990995,
1_con_totaldot,0.25,1,23,4,418,6,,,,1_con_totaldot_image_40.png,40,309.7549468284938,310.00604705342556,,,,,1,1,2024-10-28_16h45.51.295,visual,2024.1.5,120.18081263990995,
4_con_circum,0.25,4,23,5,419,15,,,,4_con_circum_image_62.png,62,310.1132301205303,310.36345938749145,,,,,1,1,2024-10-28_16h45.51.295,visual,2024.1.5,120.18081263990995,
1_con_singledot,0.25,1,23,6,420,0,,,,1_con_singledot_image_46.png,46,310.4707690375158,310.72263651252723,,,,,1,1,2024-10-28_16h45.51.295,visual,2024.1.5,120.18081263990995,
5_con_totaldot,0.25,5,23,7,421,10,,,,5_con_totaldot_image_14.png,14,310.8292404535692,311.07935209542046,,,,,1,1,2024-10-28_16h45.51.295,visual,2024.1.5,120.18081263990995,
2_con_singledot,0.25,2,23,8,422,1,,,,2_con_singledot_image_29.png,29,311.18828424545933,311.43895197047385,,,,,1,1,2024-10-28_16h45.51.295,visual,2024.1.5,120.18081263990995,
1_con_circum,0.25,1,23,9,423,12,,,,1_con_circum_image_36.png,36,311.54550645351407,311.7960198454559,,,,,1,1,2024-10-28_16h45.51.295,visual,2024.1.5,120.18081263990995,
2_con_circum,0.25,2,23,10,424,13,,,,2_con_circum_image_13.png,13,311.90492728750684,312.15507701241876,,,,,1,1,2024-10-28_16h45.51.295,visual,2024.1.5,120.18081263990995,
5_con_circum,0.25,5,23,11,425,16,,,,5_con_circum_image_53.png,53,312.26163820354265,312.5126758034341,,,,,1,1,2024-10-28_16h45.51.295,visual,2024.1.5,120.18081263990995,
3_con_totaldot,0.25,3,23,12,426,8,,,,3_con_totaldot_image_8.png,8,312.6216413704911,312.87179234547074,,,,,1,1,2024-10-28_16h45.51.295,visual,2024.1.5,120.18081263990995,
5_con_singledot,0.25,5,23,13,427,4,,,,5_con_singledot_image_13.png,13,312.9783307455014,313.23006192843894,,,,,1,1,2024-10-28_16h45.51.295,visual,2024.1.5,120.18081263990995,
6_con_circum,0.25,6,23,14,428,17,,,,6_con_circum_image_60.png,60,313.3374573705019,313.5884608034277,,,,,1,1,2024-10-28_16h45.51.295,visual,2024.1.5,120.18081263990995,
6_con_singledot,0.25,6,23,15,429,5,,,,6_con_singledot_image_42.png,42,313.6942980785621,313.946553303441,,,,,1,1,2024-10-28_16h45.51.295,visual,2024.1.5,120.18081263990995,
3_con_circum,0.25,3,23,16,430,14,,,,3_con_circum_image_9.png,9,314.0545892454916,314.30521197051274,,,,,1,1,2024-10-28_16h45.51.295,visual,2024.1.5,120.18081263990995,
3_con_singledot,0.25,3,23,17,431,2,,,,3_con_singledot_image_52.png,52,314.4118039955152,314.6630908034742,1.wav,314.764205415966,1.mp4,314.764205415966,1,1,2024-10-28_16h45.51.295,visual,2024.1.5,120.18081263990995,
5_con_totaldot,0.25,5,24,0,432,10,,,,5_con_totaldot_image_27.png,27,316.59726726626974,316.8467923874734,,,,,1,1,2024-10-28_16h45.51.295,visual,2024.1.5,120.18081263990995,
1_con_singledot,0.25,1,24,1,433,0,,,,1_con_singledot_image_4.png,4,316.9547451625345,317.2060816784389,,,,,1,1,2024-10-28_16h45.51.295,visual,2024.1.5,120.18081263990995,
1_con_circum,0.25,1,24,2,434,12,,,,1_con_circum_image_44.png,44,317.3125854125479,317.56238317843525,,,,,1,1,2024-10-28_16h45.51.295,visual,2024.1.5,120.18081263990995,
5_con_circum,0.25,5,24,3,435,16,,,,5_con_circum_image_11.png,11,317.67165128749326,317.92239972045644,,,,,1,1,2024-10-28_16h45.51.295,visual,2024.1.5,120.18081263990995,
3_con_circum,0.25,3,24,4,436,14,,,,3_con_circum_image_12.png,12,318.02883057857395,318.2786937205121,,,,,1,1,2024-10-28_16h45.51.295,visual,2024.1.5,120.18081263990995,
4_con_singledot,0.25,4,24,5,437,3,,,,4_con_singledot_image_1.png,1,318.3883858705172,318.6393008875195,,,,,1,1,2024-10-28_16h45.51.295,visual,2024.1.5,120.18081263990995,
3_con_totaldot,0.25,3,24,6,438,8,,,,3_con_totaldot_image_21.png,21,318.74578949555286,318.99561963747254,,,,,1,1,2024-10-28_16h45.51.295,visual,2024.1.5,120.18081263990995,
2_con_singledot,0.25,2,24,7,439,1,,,,2_con_singledot_image_35.png,35,319.1049869124777,319.3556071374798,,,,,1,1,2024-10-28_16h45.51.295,visual,2024.1.5,120.18081263990995,
5_con_singledot,0.25,5,24,8,440,4,,,,5_con_singledot_image_41.png,41,319.46208766256456,319.7133380125044,,,,,1,1,2024-10-28_16h45.51.295,visual,2024.1.5,120.18081263990995,
3_con_singledot,0.25,3,24,9,441,2,,,,3_con_singledot_image_53.png,53,319.8212052874965,320.07197988748084,,,,,1,1,2024-10-28_16h45.51.295,visual,2024.1.5,120.18081263990995,
6_con_totaldot,0.25,6,24,10,442,11,,,,6_con_totaldot_image_18.png,18,320.17779245346316,320.43015759547706,,,,,1,1,2024-10-28_16h45.51.295,visual,2024.1.5,120.18081263990995,
2_con_circum,0.25,2,24,11,443,13,,,,2_con_circum_image_39.png,39,320.5383948704926,320.7893724284833,,,,,1,1,2024-10-28_16h45.51.295,visual,2024.1.5,120.18081263990995,
4_con_totaldot,0.25,4,24,12,444,9,,,,4_con_totaldot_image_35.png,35,320.89583791247566,321.1466655955184,,,,,1,1,2024-10-28_16h45.51.295,visual,2024.1.5,120.18081263990995,
4_con_circum,0.25,4,24,13,445,15,,,,4_con_circum_image_16.png,16,321.25450032847,321.50530647048726,,,,,1,1,2024-10-28_16h45.51.295,visual,2024.1.5,120.18081263990995,
1_con_totaldot,0.25,1,24,14,446,6,,,,1_con_totaldot_image_19.png,19,321.6117545374669,321.8637685954338,,,,,1,1,2024-10-28_16h45.51.295,visual,2024.1.5,120.18081263990995,
6_con_circum,0.25,6,24,15,447,17,,,,6_con_circum_image_25.png,25,321.97197828746863,322.2219783874927,,,,,1,1,2024-10-28_16h45.51.295,visual,2024.1.5,120.18081263990995,
6_con_singledot,0.25,6,24,16,448,5,,,,6_con_singledot_image_7.png,7,322.32841020347547,322.57999805342405,,,,,1,1,2024-10-28_16h45.51.295,visual,2024.1.5,120.18081263990995,
2_con_totaldot,0.25,2,24,17,449,7,,,,2_con_totaldot_image_40.png,40,322.6885298704961,322.9386834284989,5.wav,323.03812966600526,14.mp4,323.03812966600526,1,1,2024-10-28_16h45.51.295,visual,2024.1.5,120.18081263990995,
5_con_singledot,0.25,5,25,0,450,4,,,,5_con_singledot_image_34.png,34,324.8769731832668,325.1298285534605,,,,,1,1,2024-10-28_16h45.51.295,visual,2024.1.5,120.18081263990995,
6_con_singledot,0.25,6,25,1,451,5,,,,6_con_singledot_image_14.png,14,325.2382272035116,325.4895350954495,,,,,1,1,2024-10-28_16h45.51.295,visual,2024.1.5,120.18081263990995,
5_con_circum,0.25,5,25,2,452,16,,,,5_con_circum_image_4.png,4,325.59626153754067,325.8462992625311,,,,,1,1,2024-10-28_16h45.51.295,visual,2024.1.5,120.18081263990995,
6_con_circum,0.25,6,25,3,453,17,,,,6_con_circum_image_8.png,8,325.95491003748026,326.2061098875012,,,,,1,1,2024-10-28_16h45.51.295,visual,2024.1.5,120.18081263990995,
3_con_singledot,0.25,3,25,4,454,2,,,,3_con_singledot_image_18.png,18,326.31260128752325,326.5633888454642,,,,,1,1,2024-10-28_16h45.51.295,visual,2024.1.5,120.18081263990995,
3_con_totaldot,0.25,3,25,5,455,8,,,,3_con_totaldot_image_26.png,26,326.6722052034689,326.92212547052185,,,,,1,1,2024-10-28_16h45.51.295,visual,2024.1.5,120.18081263990995,
1_con_singledot,0.25,1,25,6,456,0,,,,1_con_singledot_image_28.png,28,327.0286166204838,327.27954692852217,,,,,1,1,2024-10-28_16h45.51.295,visual,2024.1.5,120.18081263990995,
5_con_totaldot,0.25,5,25,7,457,10,,,,5_con_totaldot_image_22.png,22,327.3886724125128,327.63956855346913,,,,,1,1,2024-10-28_16h45.51.295,visual,2024.1.5,120.18081263990995,
3_con_circum,0.25,3,25,8,458,14,,,,3_con_circum_image_23.png,23,327.7461337455548,327.99682117851916,,,,,1,1,2024-10-28_16h45.51.295,visual,2024.1.5,120.18081263990995,
4_con_totaldot,0.25,4,25,9,459,9,,,,4_con_totaldot_image_36.png,36,328.10535507849414,328.35542951249516,,,,,1,1,2024-10-28_16h45.51.295,visual,2024.1.5,120.18081263990995,
4_con_circum,0.25,4,25,10,460,15,,,,4_con_circum_image_35.png,35,328.46193966248535,328.71282742852344,,,,,1,1,2024-10-28_16h45.51.295,visual,2024.1.5,120.18081263990995,
2_con_singledot,0.25,2,25,11,461,1,,,,2_con_singledot_image_46.png,46,328.8218575784936,329.0725421784911,,,,,1,1,2024-10-28_16h45.51.295,visual,2024.1.5,120.18081263990995,
6_con_totaldot,0.25,6,25,12,462,11,,,,6_con_totaldot_image_47.png,47,329.1790878705447,329.430353512452,,,,,1,1,2024-10-28_16h45.51.295,visual,2024.1.5,120.18081263990995,
1_con_circum,0.25,1,25,13,463,12,,,,1_con_circum_image_18.png,18,329.5378466624766,329.78880413742735,,,,,1,1,2024-10-28_16h45.51.295,visual,2024.1.5,120.18081263990995,
4_con_singledot,0.25,4,25,14,464,3,,,,4_con_singledot_image_26.png,26,329.8953085375484,330.1462902204832,,,,,1,1,2024-10-28_16h45.51.295,visual,2024.1.5,120.18081263990995,
1_con_totaldot,0.25,1,25,15,465,6,,,,1_con_totaldot_image_3.png,3,330.25532707853705,330.5054873035289,,,,,1,1,2024-10-28_16h45.51.295,visual,2024.1.5,120.18081263990995,
2_con_circum,0.25,2,25,16,466,13,,,,2_con_circum_image_5.png,5,330.6120752875227,330.86399567842017,,,,,1,1,2024-10-28_16h45.51.295,visual,2024.1.5,120.18081263990995,
2_con_totaldot,0.25,2,25,17,467,7,,,,2_con_totaldot_image_5.png,5,330.9712643705075,331.222765845526,4.wav,331.32220945798326,11.mp4,331.32220945798326,1,1,2024-10-28_16h45.51.295,visual,2024.1.5,120.18081263990995,
6_con_circum,0.25,6,26,0,468,17,,,,6_con_circum_image_15.png,15,333.1524745583534,333.4054693454411,,,,,1,1,2024-10-28_16h45.51.295,visual,2024.1.5,120.18081263990995,
3_con_totaldot,0.25,3,26,1,469,8,,,,3_con_totaldot_image_25.png,25,333.5122465784894,333.7637205124367,,,,,1,1,2024-10-28_16h45.51.295,visual,2024.1.5,120.18081263990995,
3_con_circum,0.25,3,26,2,470,14,,,,3_con_circum_image_29.png,29,333.8716992035275,334.1223299284931,,,,,1,1,2024-10-28_16h45.51.295,visual,2024.1.5,120.18081263990995,
5_con_circum,0.25,5,26,3,471,16,,,,5_con_circum_image_29.png,29,334.2289233284769,334.48030572051647,,,,,1,1,2024-10-28_16h45.51.295,visual,2024.1.5,120.18081263990995,
6_con_totaldot,0.25,6,26,4,472,11,,,,6_con_totaldot_image_31.png,31,334.58790520348117,334.83883880351203,,,,,1,1,2024-10-28_16h45.51.295,visual,2024.1.5,120.18081263990995,
2_con_singledot,0.25,2,26,5,473,1,,,,2_con_singledot_image_38.png,38,334.94546241257336,335.19641067849005,,,,,1,1,2024-10-28_16h45.51.295,visual,2024.1.5,120.18081263990995,
1_con_singledot,0.25,1,26,6,474,0,,,,1_con_singledot_image_1.png,1,335.3051425784593,335.556704220525,,,,,1,1,2024-10-28_16h45.51.295,visual,2024.1.5,120.18081263990995,
4_con_singledot,0.25,4,26,7,475,3,,,,4_con_singledot_image_3.png,3,335.6633596205152,335.9134507204173,,,,,1,1,2024-10-28_16h45.51.295,visual,2024.1.5,120.18081263990995,
5_con_totaldot,0.25,5,26,8,476,10,,,,5_con_totaldot_image_60.png,60,336.02173370346424,336.2728795954492,,,,,1,1,2024-10-28_16h45.51.295,visual,2024.1.5,120.18081263990995,
3_con_singledot,0.25,3,26,9,477,2,,,,3_con_singledot_image_58.png,58,336.37943003748074,336.62969922046176,,,,,1,1,2024-10-28_16h45.51.295,visual,2024.1.5,120.18081263990995,
4_con_circum,0.25,4,26,10,478,15,,,,4_con_circum_image_4.png,4,336.73872595352583,336.99314676253124,,,,,1,1,2024-10-28_16h45.51.295,visual,2024.1.5,120.18081263990995,
6_con_singledot,0.25,6,26,11,479,5,,,,6_con_singledot_image_63.png,63,337.1015198704786,337.35574830351396,,,,,1,1,2024-10-28_16h45.51.295,visual,2024.1.5,120.18081263990995,
2_con_circum,0.25,2,26,12,480,13,,,,2_con_circum_image_33.png,33,337.462355287536,337.7129804704338,,,,,1,1,2024-10-28_16h45.51.295,visual,2024.1.5,120.18081263990995,
1_con_totaldot,0.25,1,26,13,481,6,,,,1_con_totaldot_image_70.png,70,337.8220188284991,338.0732767624315,,,,,1,1,2024-10-28_16h45.51.295,visual,2024.1.5,120.18081263990995,
1_con_circum,0.25,1,26,14,482,12,,,,1_con_circum_image_54.png,54,338.1810360375326,338.4304498874582,,,,,1,1,2024-10-28_16h45.51.295,visual,2024.1.5,120.18081263990995,
5_con_singledot,0.25,5,26,15,483,4,,,,5_con_singledot_image_29.png,29,338.5381577875465,338.78906626247334,,,,,1,1,2024-10-28_16h45.51.295,visual,2024.1.5,120.18081263990995,
2_con_totaldot,0.25,2,26,16,484,7,,,,2_con_totaldot_image_8.png,8,338.89575332847886,339.14747559551614,,,,,1,1,2024-10-28_16h45.51.295,visual,2024.1.5,120.18081263990995,
4_con_totaldot,0.25,4,26,17,485,9,,,,4_con_totaldot_image_55.png,55,339.2550669955322,339.50562422052025,5.wav,339.60503500001505,13.mp4,339.60503500001505,1,1,2024-10-28_16h45.51.295,visual,2024.1.5,120.18081263990995,
2_con_totaldot,0.25,2,27,0,486,7,,,,2_con_totaldot_image_57.png,57,341.46333380837456,341.713951887493,,,,,1,1,2024-10-28_16h45.51.295,visual,2024.1.5,120.18081263990995,
6_con_totaldot,0.25,6,27,1,487,11,,,,6_con_totaldot_image_20.png,20,341.8218071625102,342.0723013034323,,,,,1,1,2024-10-28_16h45.51.295,visual,2024.1.5,120.18081263990995,
3_con_totaldot,0.25,3,27,2,488,8,,,,3_con_totaldot_image_59.png,59,342.17881203747817,342.4306771375006,,,,,1,1,2024-10-28_16h45.51.295,visual,2024.1.5,120.18081263990995,
2_con_singledot,0.25,2,27,3,489,1,,,,2_con_singledot_image_53.png,53,342.5384667455451,342.7889008034719,,,,,1,1,2024-10-28_16h45.51.295,visual,2024.1.5,120.18081263990995,
2_con_circum,0.25,2,27,4,490,13,,,,2_con_circum_image_46.png,46,342.895479453518,343.1472038875101,,,,,1,1,2024-10-28_16h45.51.295,visual,2024.1.5,120.18081263990995,
5_con_singledot,0.25,5,27,5,491,4,,,,5_con_singledot_image_28.png,28,343.2546819534851,343.50614101246464,,,,,1,1,2024-10-28_16h45.51.295,visual,2024.1.5,120.18081263990995,
4_con_singledot,0.25,4,27,6,492,3,,,,4_con_singledot_image_18.png,18,343.6126141204964,343.8638632204849,,,,,1,1,2024-10-28_16h45.51.295,visual,2024.1.5,120.18081263990995,
1_con_totaldot,0.25,1,27,7,493,6,,,,1_con_totaldot_image_14.png,14,343.97134903750845,344.2229116784176,,,,,1,1,2024-10-28_16h45.51.295,visual,2024.1.5,120.18081263990995,
6_con_circum,0.25,6,27,8,494,17,,,,6_con_circum_image_7.png,7,344.32940766252574,344.58032326241954,,,,,1,1,2024-10-28_16h45.51.295,visual,2024.1.5,120.18081263990995,
3_con_singledot,0.25,3,27,9,495,2,,,,3_con_singledot_image_34.png,34,344.6881282035261,344.939527970436,,,,,1,1,2024-10-28_16h45.51.295,visual,2024.1.5,120.18081263990995,
4_con_totaldot,0.25,4,27,10,496,9,,,,4_con_totaldot_image_21.png,21,345.045983870537,345.2968994704308,,,,,1,1,2024-10-28_16h45.51.295,visual,2024.1.5,120.18081263990995,
4_con_circum,0.25,4,27,11,497,15,,,,4_con_circum_image_49.png,49,345.4052172454772,345.65675080351065,,,,,1,1,2024-10-28_16h45.51.295,visual,2024.1.5,120.18081263990995,
6_con_singledot,0.25,6,27,12,498,5,,,,6_con_singledot_image_25.png,25,345.7633952455595,346.013325137482,,,,,1,1,2024-10-28_16h45.51.295,visual,2024.1.5,120.18081263990995,
1_con_circum,0.25,1,27,13,499,12,,,,1_con_circum_image_8.png,8,346.1223388285376,346.37231867846566,,,,,1,1,2024-10-28_16h45.51.295,visual,2024.1.5,120.18081263990995,
1_con_singledot,0.25,1,27,14,500,0,,,,1_con_singledot_image_33.png,33,346.4789745374815,346.7304588874569,,,,,1,1,2024-10-28_16h45.51.295,visual,2024.1.5,120.18081263990995,
3_con_circum,0.25,3,27,15,501,14,,,,3_con_circum_image_7.png,7,346.838021995523,347.0890740534989,,,,,1,1,2024-10-28_16h45.51.295,visual,2024.1.5,120.18081263990995,
5_con_circum,0.25,5,27,16,502,16,,,,5_con_circum_image_67.png,67,347.1955364955589,347.4469440954737,,,,,1,1,2024-10-28_16h45.51.295,visual,2024.1.5,120.18081263990995,
5_con_totaldot,0.25,5,27,17,503,10,,,,5_con_totaldot_image_34.png,34,347.5555747035192,347.8064383034827,5.wav,347.90581575001124,13.mp4,347.90581575001124,1,1,2024-10-28_16h45.51.295,visual,2024.1.5,120.18081263990995,
3_con_circum,0.25,3,28,0,504,14,,,,3_con_circum_image_39.png,39,349.7607515583746,350.0135376784485,,,,,1,1,2024-10-28_16h45.51.295,visual,2024.1.5,120.18081263990995,
1_con_circum,0.25,1,28,1,505,12,,,,1_con_circum_image_29.png,29,350.1214885375462,350.3723969284212,,,,,1,1,2024-10-28_16h45.51.295,visual,2024.1.5,120.18081263990995,
6_con_singledot,0.25,6,28,2,506,5,,,,6_con_singledot_image_23.png,23,350.47907570356034,350.7298423874192,,,,,1,1,2024-10-28_16h45.51.295,visual,2024.1.5,120.18081263990995,
5_con_singledot,0.25,5,28,3,507,4,,,,5_con_singledot_image_17.png,17,350.83932645353485,351.0894549704855,,,,,1,1,2024-10-28_16h45.51.295,visual,2024.1.5,120.18081263990995,
5_con_circum,0.25,5,28,4,508,16,,,,5_con_circum_image_64.png,64,351.1953991624992,351.4471522624837,,,,,1,1,2024-10-28_16h45.51.295,visual,2024.1.5,120.18081263990995,
1_con_totaldot,0.25,1,28,5,509,6,,,,1_con_totaldot_image_28.png,28,351.55479995349884,351.80649663745425,,,,,1,1,2024-10-28_16h45.51.295,visual,2024.1.5,120.18081263990995,
6_con_totaldot,0.25,6,28,6,510,11,,,,6_con_totaldot_image_33.png,33,351.9130640785675,352.1636690535117,,,,,1,1,2024-10-28_16h45.51.295,visual,2024.1.5,120.18081263990995,
2_con_circum,0.25,2,28,7,511,13,,,,2_con_circum_image_25.png,25,352.27148245347195,352.52296922046224,,,,,1,1,2024-10-28_16h45.51.295,visual,2024.1.5,120.18081263990995,
2_con_singledot,0.25,2,28,8,512,1,,,,2_con_singledot_image_56.png,56,352.62961487055287,352.88071126251015,,,,,1,1,2024-10-28_16h45.51.295,visual,2024.1.5,120.18081263990995,
4_con_circum,0.25,4,28,9,513,15,,,,4_con_circum_image_60.png,60,352.9890466204611,353.23959026245865,,,,,1,1,2024-10-28_16h45.51.295,visual,2024.1.5,120.18081263990995,
5_con_totaldot,0.25,5,28,10,514,10,,,,5_con_totaldot_image_59.png,59,353.34608912051186,353.5972348454408,,,,,1,1,2024-10-28_16h45.51.295,visual,2024.1.5,120.18081263990995,
3_con_totaldot,0.25,3,28,11,515,8,,,,3_con_totaldot_image_2.png,2,353.7054364125011,353.9562994704349,,,,,1,1,2024-10-28_16h45.51.295,visual,2024.1.5,120.18081263990995,
4_con_totaldot,0.25,4,28,12,516,9,,,,4_con_totaldot_image_57.png,57,354.06274178754535,354.3134682204574,,,,,1,1,2024-10-28_16h45.51.295,visual,2024.1.5,120.18081263990995,
4_con_singledot,0.25,4,28,13,517,3,,,,4_con_singledot_image_9.png,9,354.4222569124773,354.67332655347417,,,,,1,1,2024-10-28_16h45.51.295,visual,2024.1.5,120.18081263990995,
6_con_circum,0.25,6,28,14,518,17,,,,6_con_circum_image_57.png,57,354.77987895349503,355.0308553454699,,,,,1,1,2024-10-28_16h45.51.295,visual,2024.1.5,120.18081263990995,
3_con_singledot,0.25,3,28,15,519,2,,,,3_con_singledot_image_42.png,42,355.1387070375727,355.38919467844534,,,,,1,1,2024-10-28_16h45.51.295,visual,2024.1.5,120.18081263990995,
2_con_totaldot,0.25,2,28,16,520,7,,,,2_con_totaldot_image_67.png,67,355.49591912052125,355.74676742851733,,,,,1,1,2024-10-28_16h45.51.295,visual,2024.1.5,120.18081263990995,
1_con_singledot,0.25,1,28,17,521,0,,,,1_con_singledot_image_3.png,3,355.85494466256347,356.1063200125238,3.wav,356.2056822499726,1.mp4,356.2056822499726,1,1,2024-10-28_16h45.51.295,visual,2024.1.5,120.18081263990995,
3_con_singledot,0.25,3,29,0,522,2,,,,3_con_singledot_image_59.png,59,358.04113905832634,358.29728605346753,,,,,1,1,2024-10-28_16h45.51.295,visual,2024.1.5,120.18081263990995,
2_con_circum,0.25,2,29,1,523,13,,,,2_con_circum_image_48.png,48,358.40501416255717,358.65604347041807,,,,,1,1,2024-10-28_16h45.51.295,visual,2024.1.5,120.18081263990995,
5_con_totaldot,0.25,5,29,2,524,10,,,,5_con_totaldot_image_69.png,69,358.7628183284774,359.01465147051493,,,,,1,1,2024-10-28_16h45.51.295,visual,2024.1.5,120.18081263990995,
1_con_circum,0.25,1,29,3,525,12,,,,1_con_circum_image_53.png,53,359.12217457850926,359.37256434552836,,,,,1,1,2024-10-28_16h45.51.295,visual,2024.1.5,120.18081263990995,
4_con_totaldot,0.25,4,29,4,526,9,,,,4_con_totaldot_image_16.png,16,359.47927928753194,359.73065126249566,,,,,1,1,2024-10-28_16h45.51.295,visual,2024.1.5,120.18081263990995,
2_con_totaldot,0.25,2,29,5,527,7,,,,2_con_totaldot_image_45.png,45,359.8387308705365,360.089291928499,,,,,1,1,2024-10-28_16h45.51.295,visual,2024.1.5,120.18081263990995,
4_con_singledot,0.25,4,29,6,528,3,,,,4_con_singledot_image_31.png,31,360.19578195353967,360.4467738034902,,,,,1,1,2024-10-28_16h45.51.295,visual,2024.1.5,120.18081263990995,
6_con_circum,0.25,6,29,7,529,17,,,,6_con_circum_image_1.png,1,360.5561427874723,360.8059306374518,,,,,1,1,2024-10-28_16h45.51.295,visual,2024.1.5,120.18081263990995,
3_con_circum,0.25,3,29,8,530,14,,,,3_con_circum_image_15.png,15,360.91181691249363,361.16334563742856,,,,,1,1,2024-10-28_16h45.51.295,visual,2024.1.5,120.18081263990995,
1_con_singledot,0.25,1,29,9,531,0,,,,1_con_singledot_image_10.png,10,361.272400370473,361.5225633454276,,,,,1,1,2024-10-28_16h45.51.295,visual,2024.1.5,120.18081263990995,
1_con_totaldot,0.25,1,29,10,532,6,,,,1_con_totaldot_image_1.png,1,361.62906199556306,361.8801940954756,,,,,1,1,2024-10-28_16h45.51.295,visual,2024.1.5,120.18081263990995,
5_con_singledot,0.25,5,29,11,533,4,,,,5_con_singledot_image_62.png,62,361.98839345355515,362.239239053498,,,,,1,1,2024-10-28_16h45.51.295,visual,2024.1.5,120.18081263990995,
6_con_singledot,0.25,6,29,12,534,5,,,,6_con_singledot_image_1.png,1,362.3457517875591,362.5968478034949,,,,,1,1,2024-10-28_16h45.51.295,visual,2024.1.5,120.18081263990995,
4_con_circum,0.25,4,29,13,535,15,,,,4_con_circum_image_45.png,45,362.70490062052846,362.9560102625284,,,,,1,1,2024-10-28_16h45.51.295,visual,2024.1.5,120.18081263990995,
6_con_totaldot,0.25,6,29,14,536,11,,,,6_con_totaldot_image_10.png,10,363.0625395785551,363.3141778035089,,,,,1,1,2024-10-28_16h45.51.295,visual,2024.1.5,120.18081263990995,
3_con_totaldot,0.25,3,29,15,537,8,,,,3_con_totaldot_image_64.png,64,363.4217626624973,363.67344813751987,,,,,1,1,2024-10-28_16h45.51.295,visual,2024.1.5,120.18081263990995,
2_con_singledot,0.25,2,29,16,538,1,,,,2_con_singledot_image_11.png,11,363.77995562055145,364.03076309552415,,,,,1,1,2024-10-28_16h45.51.295,visual,2024.1.5,120.18081263990995,
5_con_circum,0.25,5,29,17,539,16,,,,5_con_circum_image_16.png,16,364.1390229125041,364.3893086784985,3.wav,364.48889787495136,5.mp4,364.48889787495136,1,1,2024-10-28_16h45.51.295,visual,2024.1.5,120.18081263990995,
5_con_totaldot,0.25,5,30,0,540,10,,,,5_con_totaldot_image_16.png,16,366.32082151635547,366.57320805352646,,,,,1,1,2024-10-28_16h45.51.295,visual,2024.1.5,120.18081263990995,
6_con_singledot,0.25,6,30,1,541,5,,,,6_con_singledot_image_68.png,68,366.6801982874982,366.930577012524,,,,,1,1,2024-10-28_16h45.51.295,visual,2024.1.5,120.18081263990995,
6_con_circum,0.25,6,30,2,542,17,,,,6_con_circum_image_49.png,49,367.0388853284763,367.2894183034543,,,,,1,1,2024-10-28_16h45.51.295,visual,2024.1.5,120.18081263990995,
1_con_totaldot,0.25,1,30,3,543,6,,,,1_con_totaldot_image_56.png,56,367.3959321205271,367.64693988747894,,,,,1,1,2024-10-28_16h45.51.295,visual,2024.1.5,120.18081263990995,
2_con_circum,0.25,2,30,4,544,13,,,,2_con_circum_image_65.png,65,367.7550389535259,368.00613284546415,,,,,1,1,2024-10-28_16h45.51.295,visual,2024.1.5,120.18081263990995,
3_con_singledot,0.25,3,30,5,545,2,,,,3_con_singledot_image_56.png,56,368.11234428747554,368.36348992846905,,,,,1,1,2024-10-28_16h45.51.295,visual,2024.1.5,120.18081263990995,
2_con_totaldot,0.25,2,30,6,546,7,,,,2_con_totaldot_image_27.png,27,368.47280399550215,368.723235262488,,,,,1,1,2024-10-28_16h45.51.295,visual,2024.1.5,120.18081263990995,
2_con_singledot,0.25,2,30,7,547,1,,,,2_con_singledot_image_66.png,66,368.8297466625459,369.0807388874702,,,,,1,1,2024-10-28_16h45.51.295,visual,2024.1.5,120.18081263990995,
4_con_circum,0.25,4,30,8,548,15,,,,4_con_circum_image_22.png,22,369.1884430785663,369.4400340954773,,,,,1,1,2024-10-28_16h45.51.295,visual,2024.1.5,120.18081263990995,
3_con_circum,0.25,3,30,9,549,14,,,,3_con_circum_image_52.png,52,369.5467309125466,369.7973654704867,,,,,1,1,2024-10-28_16h45.51.295,visual,2024.1.5,120.18081263990995,
4_con_totaldot,0.25,4,30,10,550,9,,,,4_con_totaldot_image_24.png,24,369.90533657851626,370.1567722204374,,,,,1,1,2024-10-28_16h45.51.295,visual,2024.1.5,120.18081263990995,
5_con_circum,0.25,5,30,11,551,16,,,,5_con_circum_image_31.png,31,370.26341599554286,370.51429072050377,,,,,1,1,2024-10-28_16h45.51.295,visual,2024.1.5,120.18081263990995,
4_con_singledot,0.25,4,30,12,552,3,,,,4_con_singledot_image_8.png,8,370.62182557852935,370.8736592624802,,,,,1,1,2024-10-28_16h45.51.295,visual,2024.1.5,120.18081263990995,
1_con_singledot,0.25,1,30,13,553,0,,,,1_con_singledot_image_30.png,30,370.9802234125323,371.2307116374606,,,,,1,1,2024-10-28_16h45.51.295,visual,2024.1.5,120.18081263990995,
6_con_totaldot,0.25,6,30,14,554,11,,,,6_con_totaldot_image_28.png,28,371.3389422454871,371.5895436375169,,,,,1,1,2024-10-28_16h45.51.295,visual,2024.1.5,120.18081263990995,
5_con_singledot,0.25,5,30,15,555,4,,,,5_con_singledot_image_16.png,16,371.69649412054565,371.94842692841775,,,,,1,1,2024-10-28_16h45.51.295,visual,2024.1.5,120.18081263990995,
3_con_totaldot,0.25,3,30,16,556,8,,,,3_con_totaldot_image_5.png,5,372.05517412049227,372.30670701251364,,,,,1,1,2024-10-28_16h45.51.295,visual,2024.1.5,120.18081263990995,
1_con_circum,0.25,1,30,17,557,12,,,,1_con_circum_image_62.png,62,372.41321220356036,372.66361867850645,2.wav,372.7651375000132,13.mp4,372.7651375000132,1,1,2024-10-28_16h45.51.295,visual,2024.1.5,120.18081263990995,
4_con_circum,0.25,4,31,0,558,15,,,,4_con_circum_image_41.png,41,374.6190668912837,374.87323201242833,,,,,1,1,2024-10-28_16h45.51.295,visual,2024.1.5,120.18081263990995,
2_con_circum,0.25,2,31,1,559,13,,,,2_con_circum_image_16.png,16,374.98027945347127,375.2305423454847,,,,,1,1,2024-10-28_16h45.51.295,visual,2024.1.5,120.18081263990995,
4_con_totaldot,0.25,4,31,2,560,9,,,,4_con_totaldot_image_33.png,33,375.3390450785169,375.58951097044627,,,,,1,1,2024-10-28_16h45.51.295,visual,2024.1.5,120.18081263990995,
2_con_totaldot,0.25,2,31,3,561,7,,,,2_con_totaldot_image_44.png,44,375.69614445350595,375.9470373454271,,,,,1,1,2024-10-28_16h45.51.295,visual,2024.1.5,120.18081263990995,
6_con_singledot,0.25,6,31,4,562,5,,,,6_con_singledot_image_4.png,4,376.05513803756327,376.3061375954887,,,,,1,1,2024-10-28_16h45.51.295,visual,2024.1.5,120.18081263990995,
5_con_totaldot,0.25,5,31,5,563,10,,,,5_con_totaldot_image_65.png,65,376.4129708705237,376.6638917624252,,,,,1,1,2024-10-28_16h45.51.295,visual,2024.1.5,120.18081263990995,
6_con_circum,0.25,6,31,6,564,17,,,,6_con_circum_image_47.png,47,376.7719488705275,377.0229357624659,,,,,1,1,2024-10-28_16h45.51.295,visual,2024.1.5,120.18081263990995,
1_con_singledot,0.25,1,31,7,565,0,,,,1_con_singledot_image_62.png,62,377.1295713705709,377.38083222047425,,,,,1,1,2024-10-28_16h45.51.295,visual,2024.1.5,120.18081263990995,
4_con_singledot,0.25,4,31,8,566,3,,,,4_con_singledot_image_55.png,55,377.4885781205026,377.7401401785202,,,,,1,1,2024-10-28_16h45.51.295,visual,2024.1.5,120.18081263990995,
1_con_totaldot,0.25,1,31,9,567,6,,,,1_con_totaldot_image_5.png,5,377.84668937048406,378.0967843875289,,,,,1,1,2024-10-28_16h45.51.295,visual,2024.1.5,120.18081263990995,
5_con_circum,0.25,5,31,10,568,16,,,,5_con_circum_image_23.png,23,378.206074870564,378.4571880124742,,,,,1,1,2024-10-28_16h45.51.295,visual,2024.1.5,120.18081263990995,
1_con_circum,0.25,1,31,11,569,12,,,,1_con_circum_image_66.png,66,378.56366316254713,378.8138799705077,,,,,1,1,2024-10-28_16h45.51.295,visual,2024.1.5,120.18081263990995,
3_con_circum,0.25,3,31,12,570,14,,,,3_con_circum_image_21.png,21,378.9228763705119,379.1729085534345,,,,,1,1,2024-10-28_16h45.51.295,visual,2024.1.5,120.18081263990995,
3_con_singledot,0.25,3,31,13,571,2,,,,3_con_singledot_image_38.png,38,379.2796994535252,379.530319387489,,,,,1,1,2024-10-28_16h45.51.295,visual,2024.1.5,120.18081263990995,
