condition,duration,numerosity,trials.thisRepN,trials.thisTrialN,trials.thisN,trials.thisIndex,thisRow.t,notes,text_welcome.started,image_name,image.started,image.stopped,audio_name,audio_started,movie_name,movie_started,participant,session,date|hid,expName|hid,psychopyVersion|hid,frameRate,
2_con_singledot,0.25,2,0,0,0,1,,,120.14031187500223,2_con_singledot_image_53.png,122.92418444102515,123.17602642850252,,,,,1,1,2024-10-14_17h50.20.807,visual,2024.1.5,120.5129634345996,
3_con_singledot,0.25,3,0,1,1,2,,,,3_con_singledot_image_45.png,123.28551132850698,123.53812401250471,,,,,1,1,2024-10-14_17h50.20.807,visual,2024.1.5,120.5129634345996,
5_con_singledot,0.25,5,0,2,2,4,,,,5_con_singledot_image_14.png,123.64701203750447,123.89718734552153,,,,,1,1,2024-10-14_17h50.20.807,visual,2024.1.5,120.5129634345996,
4_con_singledot,0.25,4,0,3,3,3,,,,4_con_singledot_image_66.png,124.00318282850203,124.2558988875011,,,,,1,1,2024-10-14_17h50.20.807,visual,2024.1.5,120.5129634345996,
1_con_circum,0.25,1,0,4,4,12,,,,1_con_circum_image_27.png,124.36340124551789,124.61455692852033,,,,,1,1,2024-10-14_17h50.20.807,visual,2024.1.5,120.5129634345996,
3_con_circum,0.25,3,0,5,5,14,,,,3_con_circum_image_33.png,124.72038453749265,124.97131572050276,,,,,1,1,2024-10-14_17h50.20.807,visual,2024.1.5,120.5129634345996,
4_con_circum,0.25,4,0,6,6,15,,,,4_con_circum_image_22.png,125.08020674549626,125.33134205351817,,,,,1,1,2024-10-14_17h50.20.807,visual,2024.1.5,120.5129634345996,
1_con_singledot,0.25,1,0,7,7,0,,,,1_con_singledot_image_6.png,125.43717753749225,125.68879676249927,,,,,1,1,2024-10-14_17h50.20.807,visual,2024.1.5,120.5129634345996,
6_con_singledot,0.25,6,0,8,8,5,,,,6_con_singledot_image_4.png,125.7962124534999,126.0482705535018,,,,,1,1,2024-10-14_17h50.20.807,visual,2024.1.5,120.5129634345996,
6_con_totaldot,0.25,6,0,9,9,11,,,,6_con_totaldot_image_11.png,126.15582312051556,126.4147098035086,,,,,1,1,2024-10-14_17h50.20.807,visual,2024.1.5,120.5129634345996,
4_con_totaldot,0.25,4,0,10,10,9,,,,4_con_totaldot_image_12.png,126.52044057850726,126.77306030350738,,,,,1,1,2024-10-14_17h50.20.807,visual,2024.1.5,120.5129634345996,
2_con_circum,0.25,2,0,11,11,13,,,,2_con_circum_image_53.png,126.88028570350725,127.13136847050046,,,,,1,1,2024-10-14_17h50.20.807,visual,2024.1.5,120.5129634345996,
6_con_circum,0.25,6,0,12,12,17,,,,6_con_circum_image_54.png,127.23733437051415,127.4877568035212,,,,,1,1,2024-10-14_17h50.20.807,visual,2024.1.5,120.5129634345996,
5_con_totaldot,0.25,5,0,13,13,10,,,,5_con_totaldot_image_1.png,127.59673349549412,127.84733630350675,,,,,1,1,2024-10-14_17h50.20.807,visual,2024.1.5,120.5129634345996,
5_con_circum,0.25,5,0,14,14,16,,,,5_con_circum_image_16.png,127.95340974549181,128.2049580535153,,,,,1,1,2024-10-14_17h50.20.807,visual,2024.1.5,120.5129634345996,
2_con_totaldot,0.25,2,0,15,15,7,,,,2_con_totaldot_image_48.png,128.31315674550135,128.5640268455085,,,,,1,1,2024-10-14_17h50.20.807,visual,2024.1.5,120.5129634345996,
1_con_totaldot,0.25,1,0,16,16,6,,,,1_con_totaldot_image_24.png,128.66996899551597,128.92177205350018,,,,,1,1,2024-10-14_17h50.20.807,visual,2024.1.5,120.5129634345996,
3_con_totaldot,0.25,3,0,17,17,8,,,,3_con_totaldot_image_13.png,129.03018024550985,129.28159205351258,5.wav,129.3807807500125,12.mp4,129.3807807500125,1,1,2024-10-14_17h50.20.807,visual,2024.1.5,120.5129634345996,
3_con_circum,0.25,3,1,0,18,14,,,,3_con_circum_image_30.png,131.2177649749676,131.47153651252157,,,,,1,1,2024-10-14_17h50.20.807,visual,2024.1.5,120.5129634345996,
5_con_totaldot,0.25,5,1,1,19,10,,,,5_con_totaldot_image_16.png,131.58034328751384,131.83183567852248,,,,,1,1,2024-10-14_17h50.20.807,visual,2024.1.5,120.5129634345996,
5_con_singledot,0.25,5,1,2,20,4,,,,5_con_singledot_image_24.png,131.93924641250052,132.18833655352356,,,,,1,1,2024-10-14_17h50.20.807,visual,2024.1.5,120.5129634345996,
6_con_singledot,0.25,6,1,3,21,5,,,,6_con_singledot_image_16.png,132.29696320351215,132.54806509550545,,,,,1,1,2024-10-14_17h50.20.807,visual,2024.1.5,120.5129634345996,
4_con_circum,0.25,4,1,4,22,15,,,,4_con_circum_image_29.png,132.65393649549807,132.906731428497,,,,,1,1,2024-10-14_17h50.20.807,visual,2024.1.5,120.5129634345996,
6_con_circum,0.25,6,1,5,23,17,,,,6_con_circum_image_36.png,133.0139612035011,133.26478751251707,,,,,1,1,2024-10-14_17h50.20.807,visual,2024.1.5,120.5129634345996,
6_con_totaldot,0.25,6,1,6,24,11,,,,6_con_totaldot_image_64.png,133.372054370516,133.62314747050405,,,,,1,1,2024-10-14_17h50.20.807,visual,2024.1.5,120.5129634345996,
3_con_singledot,0.25,3,1,7,25,2,,,,3_con_singledot_image_31.png,133.73056487051073,133.98186317852233,,,,,1,1,2024-10-14_17h50.20.807,visual,2024.1.5,120.5129634345996,
1_con_singledot,0.25,1,1,8,26,0,,,,1_con_singledot_image_43.png,134.0893680784968,134.34728034551372,,,,,1,1,2024-10-14_17h50.20.807,visual,2024.1.5,120.5129634345996,
2_con_circum,0.25,2,1,9,27,13,,,,2_con_circum_image_37.png,134.45330299549389,134.70637197050965,,,,,1,1,2024-10-14_17h50.20.807,visual,2024.1.5,120.5129634345996,
1_con_totaldot,0.25,1,1,10,28,6,,,,1_con_totaldot_image_12.png,134.8140302035201,135.06473605349893,,,,,1,1,2024-10-14_17h50.20.807,visual,2024.1.5,120.5129634345996,
2_con_singledot,0.25,2,1,11,29,1,,,,2_con_singledot_image_11.png,135.1719246205059,135.4215428454976,,,,,1,1,2024-10-14_17h50.20.807,visual,2024.1.5,120.5129634345996,
1_con_circum,0.25,1,1,12,30,12,,,,1_con_circum_image_17.png,135.53076641251684,135.78194117852254,,,,,1,1,2024-10-14_17h50.20.807,visual,2024.1.5,120.5129634345996,
2_con_totaldot,0.25,2,1,13,31,7,,,,2_con_totaldot_image_57.png,135.8893609125109,136.13847892851336,,,,,1,1,2024-10-14_17h50.20.807,visual,2024.1.5,120.5129634345996,
4_con_totaldot,0.25,4,1,14,32,9,,,,4_con_totaldot_image_11.png,136.2472147455148,136.49821855352494,,,,,1,1,2024-10-14_17h50.20.807,visual,2024.1.5,120.5129634345996,
5_con_circum,0.25,5,1,15,33,16,,,,5_con_circum_image_47.png,136.60416512050435,136.85502422051505,,,,,1,1,2024-10-14_17h50.20.807,visual,2024.1.5,120.5129634345996,
3_con_totaldot,0.25,3,1,16,34,8,,,,3_con_totaldot_image_52.png,136.96381141250023,137.2154196785181,,,,,1,1,2024-10-14_17h50.20.807,visual,2024.1.5,120.5129634345996,
4_con_singledot,0.25,4,1,17,35,3,,,,4_con_singledot_image_40.png,137.32302495350015,137.5819273455185,5.wav,137.6806723330228,11.mp4,137.6806723330228,1,1,2024-10-14_17h50.20.807,visual,2024.1.5,120.5129634345996,
4_con_circum,0.25,4,2,0,36,15,,,,4_con_circum_image_1.png,139.5381265999633,139.7882093875145,,,,,1,1,2024-10-14_17h50.20.807,visual,2024.1.5,120.5129634345996,
6_con_totaldot,0.25,6,2,1,37,11,,,,6_con_totaldot_image_28.png,139.89717903749553,140.14834647050012,,,,,1,1,2024-10-14_17h50.20.807,visual,2024.1.5,120.5129634345996,
4_con_singledot,0.25,4,2,2,38,3,,,,4_con_singledot_image_62.png,140.25452178750422,140.50510284552584,,,,,1,1,2024-10-14_17h50.20.807,visual,2024.1.5,120.5129634345996,
1_con_singledot,0.25,1,2,3,39,0,,,,1_con_singledot_image_52.png,140.61403145351798,140.86509867851274,,,,,1,1,2024-10-14_17h50.20.807,visual,2024.1.5,120.5129634345996,
5_con_totaldot,0.25,5,2,4,40,10,,,,5_con_totaldot_image_31.png,140.97280228750898,141.23202113752487,,,,,1,1,2024-10-14_17h50.20.807,visual,2024.1.5,120.5129634345996,
3_con_singledot,0.25,3,2,5,41,2,,,,3_con_singledot_image_41.png,141.33952166249512,141.59823813749827,,,,,1,1,2024-10-14_17h50.20.807,visual,2024.1.5,120.5129634345996,
4_con_totaldot,0.25,4,2,6,42,9,,,,4_con_totaldot_image_49.png,141.7057219125156,141.95522030350403,,,,,1,1,2024-10-14_17h50.20.807,visual,2024.1.5,120.5129634345996,
6_con_singledot,0.25,6,2,7,43,5,,,,6_con_singledot_image_63.png,142.06396141251318,142.31571967850905,,,,,1,1,2024-10-14_17h50.20.807,visual,2024.1.5,120.5129634345996,
5_con_singledot,0.25,5,2,8,44,4,,,,5_con_singledot_image_16.png,142.4232830784924,142.6814434285101,,,,,1,1,2024-10-14_17h50.20.807,visual,2024.1.5,120.5129634345996,
2_con_totaldot,0.25,2,2,9,45,7,,,,2_con_totaldot_image_42.png,142.7886467875098,143.04033509552247,,,,,1,1,2024-10-14_17h50.20.807,visual,2024.1.5,120.5129634345996,
3_con_totaldot,0.25,3,2,10,46,8,,,,3_con_totaldot_image_66.png,143.14749974549633,143.3986216785037,,,,,1,1,2024-10-14_17h50.20.807,visual,2024.1.5,120.5129634345996,
6_con_circum,0.25,6,2,11,47,17,,,,6_con_circum_image_23.png,143.50603607851664,143.7566466375196,,,,,1,1,2024-10-14_17h50.20.807,visual,2024.1.5,120.5129634345996,
1_con_circum,0.25,1,2,12,48,12,,,,1_con_circum_image_25.png,143.86396562050797,144.1154248035222,,,,,1,1,2024-10-14_17h50.20.807,visual,2024.1.5,120.5129634345996,
2_con_singledot,0.25,2,2,13,49,1,,,,2_con_singledot_image_37.png,144.22326582849493,144.48133059550892,,,,,1,1,2024-10-14_17h50.20.807,visual,2024.1.5,120.5129634345996,
1_con_totaldot,0.25,1,2,14,50,6,,,,1_con_totaldot_image_67.png,144.58718949549367,144.84054622051772,,,,,1,1,2024-10-14_17h50.20.807,visual,2024.1.5,120.5129634345996,
3_con_circum,0.25,3,2,15,51,14,,,,3_con_circum_image_51.png,144.94766562049628,145.19858063752181,,,,,1,1,2024-10-14_17h50.20.807,visual,2024.1.5,120.5129634345996,
2_con_circum,0.25,2,2,16,52,13,,,,2_con_circum_image_25.png,145.3042744125007,145.5547016375116,,,,,1,1,2024-10-14_17h50.20.807,visual,2024.1.5,120.5129634345996,
5_con_circum,0.25,5,2,17,53,16,,,,5_con_circum_image_12.png,145.6641687035037,145.91512872052263,5.wav,146.01575941601186,5.mp4,146.01575941601186,1,1,2024-10-14_17h50.20.807,visual,2024.1.5,120.5129634345996,
1_con_circum,0.25,1,3,0,54,12,,,,1_con_circum_image_35.png,147.87509247496493,148.13201384552522,,,,,1,1,2024-10-14_17h50.20.807,visual,2024.1.5,120.5129634345996,
5_con_singledot,0.25,5,3,1,55,4,,,,5_con_singledot_image_41.png,148.23960820351496,148.4989444705192,,,,,1,1,2024-10-14_17h50.20.807,visual,2024.1.5,120.5129634345996,
6_con_totaldot,0.25,6,3,2,56,11,,,,6_con_totaldot_image_65.png,148.6069316624955,148.86546701251646,,,,,1,1,2024-10-14_17h50.20.807,visual,2024.1.5,120.5129634345996,
1_con_singledot,0.25,1,3,3,57,0,,,,1_con_singledot_image_69.png,148.97309903749849,149.23182092852076,,,,,1,1,2024-10-14_17h50.20.807,visual,2024.1.5,120.5129634345996,
6_con_circum,0.25,6,3,4,58,17,,,,6_con_circum_image_52.png,149.33957020349337,149.59840884552105,,,,,1,1,2024-10-14_17h50.20.807,visual,2024.1.5,120.5129634345996,
2_con_circum,0.25,2,3,5,59,13,,,,2_con_circum_image_65.png,149.70601824550542,149.95712892851444,,,,,1,1,2024-10-14_17h50.20.807,visual,2024.1.5,120.5129634345996,
2_con_singledot,0.25,2,3,6,60,1,,,,2_con_singledot_image_46.png,150.06433232849233,150.31530834551668,,,,,1,1,2024-10-14_17h50.20.807,visual,2024.1.5,120.5129634345996,
6_con_singledot,0.25,6,3,7,61,5,,,,6_con_singledot_image_34.png,150.42102437051946,150.6735898035171,,,,,1,1,2024-10-14_17h50.20.807,visual,2024.1.5,120.5129634345996,
3_con_circum,0.25,3,3,8,62,14,,,,3_con_circum_image_66.png,150.78092178750668,151.03103934552055,,,,,1,1,2024-10-14_17h50.20.807,visual,2024.1.5,120.5129634345996,
4_con_singledot,0.25,4,3,9,63,3,,,,4_con_singledot_image_15.png,151.13785587049207,151.38862542852294,,,,,1,1,2024-10-14_17h50.20.807,visual,2024.1.5,120.5129634345996,
5_con_totaldot,0.25,5,3,10,64,10,,,,5_con_totaldot_image_4.png,151.49796432849254,151.74927347052144,,,,,1,1,2024-10-14_17h50.20.807,visual,2024.1.5,120.5129634345996,
3_con_singledot,0.25,3,3,11,65,2,,,,3_con_singledot_image_26.png,151.85667507849868,152.1145983875089,,,,,1,1,2024-10-14_17h50.20.807,visual,2024.1.5,120.5129634345996,
1_con_totaldot,0.25,1,3,12,66,6,,,,1_con_totaldot_image_40.png,152.22195357851453,152.47191722051357,,,,,1,1,2024-10-14_17h50.20.807,visual,2024.1.5,120.5129634345996,
4_con_circum,0.25,4,3,13,67,15,,,,4_con_circum_image_38.png,152.58092870349648,152.8319880125113,,,,,1,1,2024-10-14_17h50.20.807,visual,2024.1.5,120.5129634345996,
3_con_totaldot,0.25,3,3,14,68,8,,,,3_con_totaldot_image_60.png,152.93775970350836,153.19039709552308,,,,,1,1,2024-10-14_17h50.20.807,visual,2024.1.5,120.5129634345996,
4_con_totaldot,0.25,4,3,15,69,9,,,,4_con_totaldot_image_55.png,153.297537703492,153.54885259550647,,,,,1,1,2024-10-14_17h50.20.807,visual,2024.1.5,120.5129634345996,
5_con_circum,0.25,5,3,16,70,16,,,,5_con_circum_image_53.png,153.65630603749307,153.91523305350566,,,,,1,1,2024-10-14_17h50.20.807,visual,2024.1.5,120.5129634345996,
2_con_totaldot,0.25,2,3,17,71,7,,,,2_con_totaldot_image_33.png,154.02267595350278,154.2724951375043,2.wav,154.37395654100692,4.mp4,154.37395654100692,1,1,2024-10-14_17h50.20.807,visual,2024.1.5,120.5129634345996,
6_con_circum,0.25,6,4,0,72,17,,,,6_con_circum_image_40.png,156.21636368298206,156.47168547052425,,,,,1,1,2024-10-14_17h50.20.807,visual,2024.1.5,120.5129634345996,
1_con_singledot,0.25,1,4,1,73,0,,,,1_con_singledot_image_38.png,156.58125170351124,156.83120284550242,,,,,1,1,2024-10-14_17h50.20.807,visual,2024.1.5,120.5129634345996,
5_con_circum,0.25,5,4,2,74,16,,,,5_con_circum_image_6.png,156.93707474549885,157.1887622624985,,,,,1,1,2024-10-14_17h50.20.807,visual,2024.1.5,120.5129634345996,
4_con_circum,0.25,4,4,3,75,15,,,,4_con_circum_image_16.png,157.2975686205202,157.54925734550343,,,,,1,1,2024-10-14_17h50.20.807,visual,2024.1.5,120.5129634345996,
1_con_totaldot,0.25,1,4,4,76,6,,,,1_con_totaldot_image_7.png,157.6570945375017,157.9147590955021,,,,,1,1,2024-10-14_17h50.20.807,visual,2024.1.5,120.5129634345996,
1_con_circum,0.25,1,4,5,77,12,,,,1_con_circum_image_68.png,158.02242395350478,158.2720468035026,,,,,1,1,2024-10-14_17h50.20.807,visual,2024.1.5,120.5129634345996,
2_con_singledot,0.25,2,4,6,78,1,,,,2_con_singledot_image_8.png,158.3813182035112,158.632016720518,,,,,1,1,2024-10-14_17h50.20.807,visual,2024.1.5,120.5129634345996,
4_con_singledot,0.25,4,4,7,79,3,,,,4_con_singledot_image_34.png,158.73772274550285,158.98796588750557,,,,,1,1,2024-10-14_17h50.20.807,visual,2024.1.5,120.5129634345996,
2_con_totaldot,0.25,2,4,8,80,7,,,,2_con_totaldot_image_3.png,159.0985044125002,159.34883067850606,,,,,1,1,2024-10-14_17h50.20.807,visual,2024.1.5,120.5129634345996,
4_con_totaldot,0.25,4,4,9,81,9,,,,4_con_totaldot_image_34.png,159.4546474535193,159.70741476250114,,,,,1,1,2024-10-14_17h50.20.807,visual,2024.1.5,120.5129634345996,
5_con_singledot,0.25,5,4,10,82,4,,,,5_con_singledot_image_45.png,159.81535637051567,160.06543334550807,,,,,1,1,2024-10-14_17h50.20.807,visual,2024.1.5,120.5129634345996,
5_con_totaldot,0.25,5,4,11,83,10,,,,5_con_totaldot_image_37.png,160.1730018285045,160.42392659551697,,,,,1,1,2024-10-14_17h50.20.807,visual,2024.1.5,120.5129634345996,
2_con_circum,0.25,2,4,12,84,13,,,,2_con_circum_image_7.png,160.53110962051434,160.7815705535235,,,,,1,1,2024-10-14_17h50.20.807,visual,2024.1.5,120.5129634345996,
3_con_totaldot,0.25,3,4,13,85,8,,,,3_con_totaldot_image_51.png,160.88733012050508,161.1390003875189,,,,,1,1,2024-10-14_17h50.20.807,visual,2024.1.5,120.5129634345996,
3_con_singledot,0.25,3,4,14,86,2,,,,3_con_singledot_image_52.png,161.2473975375062,161.49866617849912,,,,,1,1,2024-10-14_17h50.20.807,visual,2024.1.5,120.5129634345996,
6_con_singledot,0.25,6,4,15,87,5,,,,6_con_singledot_image_6.png,161.60654574549991,161.85703713750118,,,,,1,1,2024-10-14_17h50.20.807,visual,2024.1.5,120.5129634345996,
6_con_totaldot,0.25,6,4,16,88,11,,,,6_con_totaldot_image_29.png,161.96455762051048,162.21554776252597,,,,,1,1,2024-10-14_17h50.20.807,visual,2024.1.5,120.5129634345996,
3_con_circum,0.25,3,4,17,89,14,,,,3_con_circum_image_48.png,162.32120170349955,162.57362230352592,5.wav,162.67399275000207,15.mp4,162.67399275000207,1,1,2024-10-14_17h50.20.807,visual,2024.1.5,120.5129634345996,
1_con_totaldot,0.25,1,5,0,90,6,,,,1_con_totaldot_image_59.png,164.50352914097604,164.75525688750204,,,,,1,1,2024-10-14_17h50.20.807,visual,2024.1.5,120.5129634345996,
3_con_singledot,0.25,3,5,1,91,2,,,,3_con_singledot_image_19.png,164.86448966250757,165.11578813751694,,,,,1,1,2024-10-14_17h50.20.807,visual,2024.1.5,120.5129634345996,
4_con_totaldot,0.25,4,5,2,92,9,,,,4_con_totaldot_image_56.png,165.22325128749364,165.48205780352,,,,,1,1,2024-10-14_17h50.20.807,visual,2024.1.5,120.5129634345996,
3_con_circum,0.25,3,5,3,93,14,,,,3_con_circum_image_64.png,165.58990266251496,165.84557742850157,,,,,1,1,2024-10-14_17h50.20.807,visual,2024.1.5,120.5129634345996,
2_con_circum,0.25,2,5,4,94,13,,,,2_con_circum_image_24.png,165.95516045349652,166.20596522049746,,,,,1,1,2024-10-14_17h50.20.807,visual,2024.1.5,120.5129634345996,
6_con_totaldot,0.25,6,5,5,95,11,,,,6_con_totaldot_image_52.png,166.31451124551242,166.56520047051018,,,,,1,1,2024-10-14_17h50.20.807,visual,2024.1.5,120.5129634345996,
3_con_totaldot,0.25,3,5,6,96,8,,,,3_con_totaldot_image_62.png,166.67112366251533,166.9221776785038,,,,,1,1,2024-10-14_17h50.20.807,visual,2024.1.5,120.5129634345996,
4_con_singledot,0.25,4,5,7,97,3,,,,4_con_singledot_image_21.png,167.031665245496,167.28199334550882,,,,,1,1,2024-10-14_17h50.20.807,visual,2024.1.5,120.5129634345996,
6_con_singledot,0.25,6,5,8,98,5,,,,6_con_singledot_image_62.png,167.3879952455056,167.63889155351208,,,,,1,1,2024-10-14_17h50.20.807,visual,2024.1.5,120.5129634345996,
5_con_circum,0.25,5,5,9,99,16,,,,5_con_circum_image_13.png,167.74783591249727,167.998845262517,,,,,1,1,2024-10-14_17h50.20.807,visual,2024.1.5,120.5129634345996,
4_con_circum,0.25,4,5,10,100,15,,,,4_con_circum_image_27.png,168.10466045349605,168.35707001251868,,,,,1,1,2024-10-14_17h50.20.807,visual,2024.1.5,120.5129634345996,
2_con_singledot,0.25,2,5,11,101,1,,,,2_con_singledot_image_70.png,168.46454903749984,168.71574747050764,,,,,1,1,2024-10-14_17h50.20.807,visual,2024.1.5,120.5129634345996,
6_con_circum,0.25,6,5,12,102,17,,,,6_con_circum_image_26.png,168.82304303751445,169.07239322050592,,,,,1,1,2024-10-14_17h50.20.807,visual,2024.1.5,120.5129634345996,
1_con_singledot,0.25,1,5,13,103,0,,,,1_con_singledot_image_24.png,169.18096874551267,169.4319488455134,,,,,1,1,2024-10-14_17h50.20.807,visual,2024.1.5,120.5129634345996,
1_con_circum,0.25,1,5,14,104,12,,,,1_con_circum_image_57.png,169.5377778705035,169.78906330350438,,,,,1,1,2024-10-14_17h50.20.807,visual,2024.1.5,120.5129634345996,
5_con_singledot,0.25,5,5,15,105,4,,,,5_con_singledot_image_59.png,169.89777357851855,170.1490409705206,,,,,1,1,2024-10-14_17h50.20.807,visual,2024.1.5,120.5129634345996,
2_con_totaldot,0.25,2,5,16,106,7,,,,2_con_totaldot_image_17.png,170.25644232849592,170.50716505351593,,,,,1,1,2024-10-14_17h50.20.807,visual,2024.1.5,120.5129634345996,
5_con_totaldot,0.25,5,5,17,107,10,,,,5_con_totaldot_image_24.png,170.61457574549715,170.86617722051452,1.wav,170.96671745800995,16.mp4,170.96671745800995,1,1,2024-10-14_17h50.20.807,visual,2024.1.5,120.5129634345996,
2_con_singledot,0.25,2,6,0,108,1,,,,2_con_singledot_image_56.png,172.80595343296883,173.05792847052217,,,,,1,1,2024-10-14_17h50.20.807,visual,2024.1.5,120.5129634345996,
3_con_totaldot,0.25,3,6,1,109,8,,,,3_con_totaldot_image_22.png,173.1647074954992,173.41560088750558,,,,,1,1,2024-10-14_17h50.20.807,visual,2024.1.5,120.5129634345996,
1_con_totaldot,0.25,1,6,2,110,6,,,,1_con_totaldot_image_20.png,173.52217016251527,173.77323388751248,,,,,1,1,2024-10-14_17h50.20.807,visual,2024.1.5,120.5129634345996,
3_con_circum,0.25,3,6,3,111,14,,,,3_con_circum_image_67.png,173.8812175374944,174.1316679705109,,,,,1,1,2024-10-14_17h50.20.807,visual,2024.1.5,120.5129634345996,
5_con_circum,0.25,5,6,4,112,16,,,,5_con_circum_image_25.png,174.23845049551457,174.4884659285075,,,,,1,1,2024-10-14_17h50.20.807,visual,2024.1.5,120.5129634345996,
6_con_circum,0.25,6,6,5,113,17,,,,6_con_circum_image_48.png,174.59804524549983,174.84902284551063,,,,,1,1,2024-10-14_17h50.20.807,visual,2024.1.5,120.5129634345996,
2_con_totaldot,0.25,2,6,6,114,7,,,,2_con_totaldot_image_36.png,174.95487782849816,175.21072367849993,,,,,1,1,2024-10-14_17h50.20.807,visual,2024.1.5,120.5129634345996,
4_con_totaldot,0.25,4,6,7,115,9,,,,4_con_totaldot_image_38.png,175.31890191250133,175.57265959549696,,,,,1,1,2024-10-14_17h50.20.807,visual,2024.1.5,120.5129634345996,
3_con_singledot,0.25,3,6,8,116,2,,,,3_con_singledot_image_51.png,175.68127970349744,175.9323498035141,,,,,1,1,2024-10-14_17h50.20.807,visual,2024.1.5,120.5129634345996,
6_con_totaldot,0.25,6,6,9,117,11,,,,6_con_totaldot_image_37.png,176.03815674550717,176.28913022051566,,,,,1,1,2024-10-14_17h50.20.807,visual,2024.1.5,120.5129634345996,
4_con_circum,0.25,4,6,10,118,15,,,,4_con_circum_image_51.png,176.39741416251056,176.6515830534976,,,,,1,1,2024-10-14_17h50.20.807,visual,2024.1.5,120.5129634345996,
4_con_singledot,0.25,4,6,11,119,3,,,,4_con_singledot_image_50.png,176.75913074550337,177.0159170535102,,,,,1,1,2024-10-14_17h50.20.807,visual,2024.1.5,120.5129634345996,
5_con_totaldot,0.25,5,6,12,120,10,,,,5_con_totaldot_image_23.png,177.12316895350816,177.3730597625021,,,,,1,1,2024-10-14_17h50.20.807,visual,2024.1.5,120.5129634345996,
2_con_circum,0.25,2,6,13,121,13,,,,2_con_circum_image_59.png,177.48131216249314,177.7323902625125,,,,,1,1,2024-10-14_17h50.20.807,visual,2024.1.5,120.5129634345996,
1_con_singledot,0.25,1,6,14,122,0,,,,1_con_singledot_image_23.png,177.83831841250068,178.08878430352198,,,,,1,1,2024-10-14_17h50.20.807,visual,2024.1.5,120.5129634345996,
5_con_singledot,0.25,5,6,15,123,4,,,,5_con_singledot_image_7.png,178.1985277875094,178.44911384551088,,,,,1,1,2024-10-14_17h50.20.807,visual,2024.1.5,120.5129634345996,
6_con_singledot,0.25,6,6,16,124,5,,,,6_con_singledot_image_51.png,178.55499045351755,178.80608026250266,,,,,1,1,2024-10-14_17h50.20.807,visual,2024.1.5,120.5129634345996,
1_con_circum,0.25,1,6,17,125,12,,,,1_con_circum_image_63.png,178.91478603751167,179.16634330351954,5.wav,179.26681229102542,3.mp4,179.26681229102542,1,1,2024-10-14_17h50.20.807,visual,2024.1.5,120.5129634345996,
6_con_singledot,0.25,6,7,0,126,5,,,,6_con_singledot_image_38.png,181.09744784997312,181.34829430352548,,,,,1,1,2024-10-14_17h50.20.807,visual,2024.1.5,120.5129634345996,
5_con_circum,0.25,5,7,1,127,16,,,,5_con_circum_image_28.png,181.45440516250093,181.7062008455163,,,,,1,1,2024-10-14_17h50.20.807,visual,2024.1.5,120.5129634345996,
5_con_totaldot,0.25,5,7,2,128,10,,,,5_con_totaldot_image_43.png,181.81503653749243,182.06588492851589,,,,,1,1,2024-10-14_17h50.20.807,visual,2024.1.5,120.5129634345996,
6_con_totaldot,0.25,6,7,3,129,11,,,,6_con_totaldot_image_70.png,182.1732834954921,182.42258459551377,,,,,1,1,2024-10-14_17h50.20.807,visual,2024.1.5,120.5129634345996,
4_con_circum,0.25,4,7,4,130,15,,,,4_con_circum_image_23.png,182.53177407851328,182.78277605350596,,,,,1,1,2024-10-14_17h50.20.807,visual,2024.1.5,120.5129634345996,
2_con_totaldot,0.25,2,7,5,131,7,,,,2_con_totaldot_image_40.png,182.89053112051917,183.14917655350874,,,,,1,1,2024-10-14_17h50.20.807,visual,2024.1.5,120.5129634345996,
3_con_singledot,0.25,3,7,6,132,2,,,,3_con_singledot_image_18.png,183.25693157849602,183.50605605351157,,,,,1,1,2024-10-14_17h50.20.807,visual,2024.1.5,120.5129634345996,
3_con_circum,0.25,3,7,7,133,14,,,,3_con_circum_image_23.png,183.61419387049975,183.86581276250072,,,,,1,1,2024-10-14_17h50.20.807,visual,2024.1.5,120.5129634345996,
6_con_circum,0.25,6,7,8,134,17,,,,6_con_circum_image_14.png,183.97154057851296,184.22163280350506,,,,,1,1,2024-10-14_17h50.20.807,visual,2024.1.5,120.5129634345996,
2_con_circum,0.25,2,7,9,135,13,,,,2_con_circum_image_51.png,184.33222362051603,184.58309188750573,,,,,1,1,2024-10-14_17h50.20.807,visual,2024.1.5,120.5129634345996,
4_con_totaldot,0.25,4,7,10,136,9,,,,4_con_totaldot_image_26.png,184.6907046625158,184.94931688751095,,,,,1,1,2024-10-14_17h50.20.807,visual,2024.1.5,120.5129634345996,
4_con_singledot,0.25,4,7,11,137,3,,,,4_con_singledot_image_6.png,185.05719287052054,185.30743072051555,,,,,1,1,2024-10-14_17h50.20.807,visual,2024.1.5,120.5129634345996,
5_con_singledot,0.25,5,7,12,138,4,,,,5_con_singledot_image_28.png,185.4152100375097,185.66558201250737,,,,,1,1,2024-10-14_17h50.20.807,visual,2024.1.5,120.5129634345996,
1_con_circum,0.25,1,7,13,139,12,,,,1_con_circum_image_61.png,185.7730282875011,186.02302147049923,,,,,1,1,2024-10-14_17h50.20.807,visual,2024.1.5,120.5129634345996,
2_con_singledot,0.25,2,7,14,140,1,,,,2_con_singledot_image_36.png,186.1315211205103,186.38254372051452,,,,,1,1,2024-10-14_17h50.20.807,visual,2024.1.5,120.5129634345996,
3_con_totaldot,0.25,3,7,15,141,8,,,,3_con_totaldot_image_55.png,186.49017120349455,186.7394361375249,,,,,1,1,2024-10-14_17h50.20.807,visual,2024.1.5,120.5129634345996,
1_con_totaldot,0.25,1,7,16,142,6,,,,1_con_totaldot_image_38.png,186.84814257851687,187.09838172051823,,,,,1,1,2024-10-14_17h50.20.807,visual,2024.1.5,120.5129634345996,
1_con_singledot,0.25,1,7,17,143,0,,,,1_con_singledot_image_21.png,187.20414491249832,187.4563014705258,2.wav,187.55818500000169,4.mp4,187.55818500000169,1,1,2024-10-14_17h50.20.807,visual,2024.1.5,120.5129634345996,
5_con_totaldot,0.25,5,8,0,144,10,,,,5_con_totaldot_image_10.png,189.39733793297202,189.64956030352042,,,,,1,1,2024-10-14_17h50.20.807,visual,2024.1.5,120.5129634345996,
5_con_circum,0.25,5,8,1,145,16,,,,5_con_circum_image_3.png,189.75690482849606,190.01603634551284,,,,,1,1,2024-10-14_17h50.20.807,visual,2024.1.5,120.5129634345996,
4_con_totaldot,0.25,4,8,2,146,9,,,,4_con_totaldot_image_19.png,190.12373199551368,190.37302388751996,,,,,1,1,2024-10-14_17h50.20.807,visual,2024.1.5,120.5129634345996,
3_con_singledot,0.25,3,8,3,147,2,,,,3_con_singledot_image_36.png,190.48135920350907,190.73278609550326,,,,,1,1,2024-10-14_17h50.20.807,visual,2024.1.5,120.5129634345996,
6_con_totaldot,0.25,6,8,4,148,11,,,,6_con_totaldot_image_24.png,190.84015670350638,191.09077872051276,,,,,1,1,2024-10-14_17h50.20.807,visual,2024.1.5,120.5129634345996,
5_con_singledot,0.25,5,8,5,149,4,,,,5_con_singledot_image_2.png,191.19833224550823,191.4490379705152,,,,,1,1,2024-10-14_17h50.20.807,visual,2024.1.5,120.5129634345996,
2_con_singledot,0.25,2,8,6,150,1,,,,2_con_singledot_image_21.png,191.5547702454962,191.80863313750015,,,,,1,1,2024-10-14_17h50.20.807,visual,2024.1.5,120.5129634345996,
1_con_circum,0.25,1,8,7,151,12,,,,1_con_circum_image_67.png,191.91479624550558,192.1659695125185,,,,,1,1,2024-10-14_17h50.20.807,visual,2024.1.5,120.5129634345996,
2_con_circum,0.25,2,8,8,152,13,,,,2_con_circum_image_70.png,192.27171087051394,192.52204842851498,,,,,1,1,2024-10-14_17h50.20.807,visual,2024.1.5,120.5129634345996,
4_con_singledot,0.25,4,8,9,153,3,,,,4_con_singledot_image_22.png,192.63178995349446,192.88232184551308,,,,,1,1,2024-10-14_17h50.20.807,visual,2024.1.5,120.5129634345996,
1_con_singledot,0.25,1,8,10,154,0,,,,1_con_singledot_image_11.png,192.9880909535161,193.24132776252227,,,,,1,1,2024-10-14_17h50.20.807,visual,2024.1.5,120.5129634345996,
6_con_singledot,0.25,6,8,11,155,5,,,,6_con_singledot_image_24.png,193.34911937050057,193.59948184551322,,,,,1,1,2024-10-14_17h50.20.807,visual,2024.1.5,120.5129634345996,
4_con_circum,0.25,4,8,12,156,15,,,,4_con_circum_image_66.png,193.70526407849977,193.95624788752176,,,,,1,1,2024-10-14_17h50.20.807,visual,2024.1.5,120.5129634345996,
1_con_totaldot,0.25,1,8,13,157,6,,,,1_con_totaldot_image_44.png,194.0642115374969,194.31664713752107,,,,,1,1,2024-10-14_17h50.20.807,visual,2024.1.5,120.5129634345996,
2_con_totaldot,0.25,2,8,14,158,7,,,,2_con_totaldot_image_41.png,194.42420937049903,194.68328101252555,,,,,1,1,2024-10-14_17h50.20.807,visual,2024.1.5,120.5129634345996,
6_con_circum,0.25,6,8,15,159,17,,,,6_con_circum_image_47.png,194.79124624551625,195.0495247205021,,,,,1,1,2024-10-14_17h50.20.807,visual,2024.1.5,120.5129634345996,
3_con_circum,0.25,3,8,16,160,14,,,,3_con_circum_image_2.png,195.15807899549256,195.41567309550592,,,,,1,1,2024-10-14_17h50.20.807,visual,2024.1.5,120.5129634345996,
3_con_totaldot,0.25,3,8,17,161,8,,,,3_con_totaldot_image_40.png,195.52153845351424,195.77477897052304,5.wav,195.87488016602583,4.mp4,195.87488016602583,1,1,2024-10-14_17h50.20.807,visual,2024.1.5,120.5129634345996,
4_con_singledot,0.25,4,9,0,162,3,,,,4_con_singledot_image_52.png,197.71712222496282,197.97285705351388,,,,,1,1,2024-10-14_17h50.20.807,visual,2024.1.5,120.5129634345996,
2_con_circum,0.25,2,9,1,163,13,,,,2_con_circum_image_48.png,198.08173299550546,198.33276163752308,,,,,1,1,2024-10-14_17h50.20.807,visual,2024.1.5,120.5129634345996,
6_con_totaldot,0.25,6,9,2,164,11,,,,6_con_totaldot_image_31.png,198.4386499955028,198.6895173455181,,,,,1,1,2024-10-14_17h50.20.807,visual,2024.1.5,120.5129634345996,
3_con_circum,0.25,3,9,3,165,14,,,,3_con_circum_image_3.png,198.79764278749937,199.04920688752318,,,,,1,1,2024-10-14_17h50.20.807,visual,2024.1.5,120.5129634345996,
3_con_totaldot,0.25,3,9,4,166,8,,,,3_con_totaldot_image_20.png,199.15515445352068,199.40636822052184,,,,,1,1,2024-10-14_17h50.20.807,visual,2024.1.5,120.5129634345996,
6_con_singledot,0.25,6,9,5,167,5,,,,6_con_singledot_image_22.png,199.5151710785169,199.76681034549839,,,,,1,1,2024-10-14_17h50.20.807,visual,2024.1.5,120.5129634345996,
1_con_circum,0.25,1,9,6,168,12,,,,1_con_circum_image_58.png,199.87441128750217,200.12443984550774,,,,,1,1,2024-10-14_17h50.20.807,visual,2024.1.5,120.5129634345996,
5_con_totaldot,0.25,5,9,7,169,10,,,,5_con_totaldot_image_55.png,200.23201903752053,200.48290238751215,,,,,1,1,2024-10-14_17h50.20.807,visual,2024.1.5,120.5129634345996,
4_con_totaldot,0.25,4,9,8,170,9,,,,4_con_totaldot_image_52.png,200.59021224551836,200.83958859550185,,,,,1,1,2024-10-14_17h50.20.807,visual,2024.1.5,120.5129634345996,
2_con_singledot,0.25,2,9,9,171,1,,,,2_con_singledot_image_4.png,200.9481032035139,201.19930184551632,,,,,1,1,2024-10-14_17h50.20.807,visual,2024.1.5,120.5129634345996,
5_con_singledot,0.25,5,9,10,172,4,,,,5_con_singledot_image_26.png,201.3069874535024,201.55830447050394,,,,,1,1,2024-10-14_17h50.20.807,visual,2024.1.5,120.5129634345996,
1_con_totaldot,0.25,1,9,11,173,6,,,,1_con_totaldot_image_54.png,201.6657116205199,201.91583080351703,,,,,1,1,2024-10-14_17h50.20.807,visual,2024.1.5,120.5129634345996,
2_con_totaldot,0.25,2,9,12,174,7,,,,2_con_totaldot_image_65.png,202.02171307850514,202.2756979285099,,,,,1,1,2024-10-14_17h50.20.807,visual,2024.1.5,120.5129634345996,
4_con_circum,0.25,4,9,13,175,15,,,,4_con_circum_image_8.png,202.38318753750647,202.63298405352398,,,,,1,1,2024-10-14_17h50.20.807,visual,2024.1.5,120.5129634345996,
3_con_singledot,0.25,3,9,14,176,2,,,,3_con_singledot_image_30.png,202.73871816251196,202.99138772051666,,,,,1,1,2024-10-14_17h50.20.807,visual,2024.1.5,120.5129634345996,
6_con_circum,0.25,6,9,15,177,17,,,,6_con_circum_image_37.png,203.0985380785016,203.34922405350372,,,,,1,1,2024-10-14_17h50.20.807,visual,2024.1.5,120.5129634345996,
1_con_singledot,0.25,1,9,16,178,0,,,,1_con_singledot_image_28.png,203.4552207875124,203.70825863752398,,,,,1,1,2024-10-14_17h50.20.807,visual,2024.1.5,120.5129634345996,
5_con_circum,0.25,5,9,17,179,16,,,,5_con_circum_image_60.png,203.81588545350243,204.06637834551512,5.wav,204.16667670800234,1.mp4,204.16667670800234,1,1,2024-10-14_17h50.20.807,visual,2024.1.5,120.5129634345996,
6_con_circum,0.25,6,10,0,180,17,,,,6_con_circum_image_33.png,206.00002722496285,206.24930122049992,,,,,1,1,2024-10-14_17h50.20.807,visual,2024.1.5,120.5129634345996,
4_con_totaldot,0.25,4,10,1,181,9,,,,4_con_totaldot_image_22.png,206.35521128749244,206.60614947049763,,,,,1,1,2024-10-14_17h50.20.807,visual,2024.1.5,120.5129634345996,
5_con_totaldot,0.25,5,10,2,182,10,,,,5_con_totaldot_image_67.png,206.715326995519,206.96666076250258,,,,,1,1,2024-10-14_17h50.20.807,visual,2024.1.5,120.5129634345996,
1_con_circum,0.25,1,10,3,183,12,,,,1_con_circum_image_37.png,207.0742061624944,207.3328009285091,,,,,1,1,2024-10-14_17h50.20.807,visual,2024.1.5,120.5129634345996,
3_con_totaldot,0.25,3,10,4,184,8,,,,3_con_totaldot_image_42.png,207.44031899549302,207.68980522049824,,,,,1,1,2024-10-14_17h50.20.807,visual,2024.1.5,120.5129634345996,
4_con_circum,0.25,4,10,5,185,15,,,,4_con_circum_image_47.png,207.79801132851864,208.04954984551878,,,,,1,1,2024-10-14_17h50.20.807,visual,2024.1.5,120.5129634345996,
1_con_totaldot,0.25,1,10,6,186,6,,,,1_con_totaldot_image_61.png,208.15532907851158,208.40625088749803,,,,,1,1,2024-10-14_17h50.20.807,visual,2024.1.5,120.5129634345996,
4_con_singledot,0.25,4,10,7,187,3,,,,4_con_singledot_image_49.png,208.5150165374973,208.7665383035259,,,,,1,1,2024-10-14_17h50.20.807,visual,2024.1.5,120.5129634345996,
6_con_totaldot,0.25,6,10,8,188,11,,,,6_con_totaldot_image_53.png,208.87426999550664,209.13337201250252,,,,,1,1,2024-10-14_17h50.20.807,visual,2024.1.5,120.5129634345996,
1_con_singledot,0.25,1,10,9,189,0,,,,1_con_singledot_image_66.png,209.24101545352025,209.4995848455059,,,,,1,1,2024-10-14_17h50.20.807,visual,2024.1.5,120.5129634345996,
2_con_singledot,0.25,2,10,10,190,1,,,,2_con_singledot_image_30.png,209.60739716251848,209.85804734551348,,,,,1,1,2024-10-14_17h50.20.807,visual,2024.1.5,120.5129634345996,
6_con_singledot,0.25,6,10,11,191,5,,,,6_con_singledot_image_35.png,209.96519007849858,210.21687572051306,,,,,1,1,2024-10-14_17h50.20.807,visual,2024.1.5,120.5129634345996,
5_con_singledot,0.25,5,10,12,192,4,,,,5_con_singledot_image_10.png,210.32434807850515,210.58220747049782,,,,,1,1,2024-10-14_17h50.20.807,visual,2024.1.5,120.5129634345996,
3_con_circum,0.25,3,10,13,193,14,,,,3_con_circum_image_35.png,210.6880302035017,210.94021497050417,,,,,1,1,2024-10-14_17h50.20.807,visual,2024.1.5,120.5129634345996,
2_con_circum,0.25,2,10,14,194,13,,,,2_con_circum_image_23.png,211.04903941251106,211.29986155350926,,,,,1,1,2024-10-14_17h50.20.807,visual,2024.1.5,120.5129634345996,
5_con_circum,0.25,5,10,15,195,16,,,,5_con_circum_image_5.png,211.4074258704961,211.66637401251356,,,,,1,1,2024-10-14_17h50.20.807,visual,2024.1.5,120.5129634345996,
2_con_totaldot,0.25,2,10,16,196,7,,,,2_con_totaldot_image_31.png,211.7721173284983,212.02517951251357,,,,,1,1,2024-10-14_17h50.20.807,visual,2024.1.5,120.5129634345996,
3_con_singledot,0.25,3,10,17,197,2,,,,3_con_singledot_image_50.png,212.1315977455117,212.38301034551696,2.wav,212.48176729099941,6.mp4,212.48176729099941,1,1,2024-10-14_17h50.20.807,visual,2024.1.5,120.5129634345996,
1_con_singledot,0.25,1,11,0,198,0,,,,1_con_singledot_image_25.png,214.30605230796502,214.55660234552343,,,,,1,1,2024-10-14_17h50.20.807,visual,2024.1.5,120.5129634345996,
5_con_totaldot,0.25,5,11,1,199,10,,,,5_con_totaldot_image_30.png,214.6653813285113,214.91664222052205,,,,,1,1,2024-10-14_17h50.20.807,visual,2024.1.5,120.5129634345996,
2_con_circum,0.25,2,11,2,200,13,,,,2_con_circum_image_55.png,215.02398620349706,215.27512038749992,,,,,1,1,2024-10-14_17h50.20.807,visual,2024.1.5,120.5129634345996,
6_con_totaldot,0.25,6,11,3,201,11,,,,6_con_totaldot_image_62.png,215.38295649549693,215.6330996785022,,,,,1,1,2024-10-14_17h50.20.807,visual,2024.1.5,120.5129634345996,
5_con_singledot,0.25,5,11,4,202,4,,,,5_con_singledot_image_30.png,215.73890987052002,215.99179951250554,,,,,1,1,2024-10-14_17h50.20.807,visual,2024.1.5,120.5129634345996,
3_con_singledot,0.25,3,11,5,203,2,,,,3_con_singledot_image_28.png,216.09910732849968,216.34948547051172,,,,,1,1,2024-10-14_17h50.20.807,visual,2024.1.5,120.5129634345996,
4_con_totaldot,0.25,4,11,6,204,9,,,,4_con_totaldot_image_25.png,216.45681645350416,216.7070043035259,,,,,1,1,2024-10-14_17h50.20.807,visual,2024.1.5,120.5129634345996,
3_con_totaldot,0.25,3,11,7,205,8,,,,3_con_totaldot_image_69.png,216.81583128751956,217.06681126251934,,,,,1,1,2024-10-14_17h50.20.807,visual,2024.1.5,120.5129634345996,
6_con_circum,0.25,6,11,8,206,17,,,,6_con_circum_image_42.png,217.17560503749993,217.43295572052594,,,,,1,1,2024-10-14_17h50.20.807,visual,2024.1.5,120.5129634345996,
1_con_totaldot,0.25,1,11,9,207,6,,,,1_con_totaldot_image_2.png,217.54045207849705,217.79166692850995,,,,,1,1,2024-10-14_17h50.20.807,visual,2024.1.5,120.5129634345996,
2_con_singledot,0.25,2,11,10,208,1,,,,2_con_singledot_image_65.png,217.8993722454936,218.1501873455185,,,,,1,1,2024-10-14_17h50.20.807,visual,2024.1.5,120.5129634345996,
1_con_circum,0.25,1,11,11,209,12,,,,1_con_circum_image_31.png,218.25788199551172,218.51608684551903,,,,,1,1,2024-10-14_17h50.20.807,visual,2024.1.5,120.5129634345996,
5_con_circum,0.25,5,11,12,210,16,,,,5_con_circum_image_11.png,218.6226094125188,218.87348851250718,,,,,1,1,2024-10-14_17h50.20.807,visual,2024.1.5,120.5129634345996,
4_con_circum,0.25,4,11,13,211,15,,,,4_con_circum_image_4.png,218.98202303749278,219.23345455350355,,,,,1,1,2024-10-14_17h50.20.807,visual,2024.1.5,120.5129634345996,
3_con_circum,0.25,3,11,14,212,14,,,,3_con_circum_image_13.png,219.3411676205171,219.5998080125195,,,,,1,1,2024-10-14_17h50.20.807,visual,2024.1.5,120.5129634345996,
2_con_totaldot,0.25,2,11,15,213,7,,,,2_con_totaldot_image_60.png,219.70750416249504,219.96032692850568,,,,,1,1,2024-10-14_17h50.20.807,visual,2024.1.5,120.5129634345996,
6_con_singledot,0.25,6,11,16,214,5,,,,6_con_singledot_image_8.png,220.06969120349387,220.3352350124973,,,,,1,1,2024-10-14_17h50.20.807,visual,2024.1.5,120.5129634345996,
4_con_singledot,0.25,4,11,17,215,3,,,,4_con_singledot_image_1.png,220.4529593704967,220.7066097625124,3.wav,220.8083823750203,14.mp4,220.8083823750203,1,1,2024-10-14_17h50.20.807,visual,2024.1.5,120.5129634345996,
1_con_circum,0.25,1,12,0,216,12,,,,1_con_circum_image_14.png,222.64820889097174,222.89974942850532,,,,,1,1,2024-10-14_17h50.20.807,visual,2024.1.5,120.5129634345996,
3_con_circum,0.25,3,12,1,217,14,,,,3_con_circum_image_16.png,223.00557857849637,223.25647876252188,,,,,1,1,2024-10-14_17h50.20.807,visual,2024.1.5,120.5129634345996,
2_con_circum,0.25,2,12,2,218,13,,,,2_con_circum_image_2.png,223.36620845350555,223.6168758455082,,,,,1,1,2024-10-14_17h50.20.807,visual,2024.1.5,120.5129634345996,
4_con_totaldot,0.25,4,12,3,219,9,,,,4_con_totaldot_image_66.png,223.72402232849274,223.9733632625197,,,,,1,1,2024-10-14_17h50.20.807,visual,2024.1.5,120.5129634345996,
4_con_circum,0.25,4,12,4,220,15,,,,4_con_circum_image_11.png,224.08134266249837,224.33363180352026,,,,,1,1,2024-10-14_17h50.20.807,visual,2024.1.5,120.5129634345996,
2_con_totaldot,0.25,2,12,5,221,7,,,,2_con_totaldot_image_20.png,224.44089249549435,224.69981526252232,,,,,1,1,2024-10-14_17h50.20.807,visual,2024.1.5,120.5129634345996,
1_con_singledot,0.25,1,12,6,222,0,,,,1_con_singledot_image_67.png,224.80767866251992,225.05838617851842,,,,,1,1,2024-10-14_17h50.20.807,visual,2024.1.5,120.5129634345996,
6_con_totaldot,0.25,6,12,7,223,11,,,,6_con_totaldot_image_15.png,225.1657000375155,225.41685717850342,,,,,1,1,2024-10-14_17h50.20.807,visual,2024.1.5,120.5129634345996,
1_con_totaldot,0.25,1,12,8,224,6,,,,1_con_totaldot_image_10.png,225.52438016249218,225.77495413751458,,,,,1,1,2024-10-14_17h50.20.807,visual,2024.1.5,120.5129634345996,
5_con_totaldot,0.25,5,12,9,225,10,,,,5_con_totaldot_image_7.png,225.88673487051275,226.1415341375163,,,,,1,1,2024-10-14_17h50.20.807,visual,2024.1.5,120.5129634345996,
6_con_circum,0.25,6,12,10,226,17,,,,6_con_circum_image_32.png,226.24868845350576,226.49952084551333,,,,,1,1,2024-10-14_17h50.20.807,visual,2024.1.5,120.5129634345996,
4_con_singledot,0.25,4,12,11,227,3,,,,4_con_singledot_image_13.png,226.60539828751936,226.8568437205162,,,,,1,1,2024-10-14_17h50.20.807,visual,2024.1.5,120.5129634345996,
3_con_singledot,0.25,3,12,12,228,2,,,,3_con_singledot_image_49.png,226.96552062050907,227.21662463751855,,,,,1,1,2024-10-14_17h50.20.807,visual,2024.1.5,120.5129634345996,
5_con_circum,0.25,5,12,13,229,16,,,,5_con_circum_image_7.png,227.32429766249263,227.58306392850355,,,,,1,1,2024-10-14_17h50.20.807,visual,2024.1.5,120.5129634345996,
2_con_singledot,0.25,2,12,14,230,1,,,,2_con_singledot_image_2.png,227.6888674535032,227.93991984549794,,,,,1,1,2024-10-14_17h50.20.807,visual,2024.1.5,120.5129634345996,
6_con_singledot,0.25,6,12,15,231,5,,,,6_con_singledot_image_44.png,228.04897803750939,228.3003605125181,,,,,1,1,2024-10-14_17h50.20.807,visual,2024.1.5,120.5129634345996,
5_con_singledot,0.25,5,12,16,232,4,,,,5_con_singledot_image_62.png,228.40813407850803,228.6665881785215,,,,,1,1,2024-10-14_17h50.20.807,visual,2024.1.5,120.5129634345996,
3_con_totaldot,0.25,3,12,17,233,8,,,,3_con_totaldot_image_61.png,228.77365120350734,229.02451447051718,3.wav,229.12559658300597,5.mp4,229.12559658300597,1,1,2024-10-14_17h50.20.807,visual,2024.1.5,120.5129634345996,
1_con_circum,0.25,1,13,0,234,12,,,,1_con_circum_image_15.png,230.96612905797085,231.21636180350325,,,,,1,1,2024-10-14_17h50.20.807,visual,2024.1.5,120.5129634345996,
3_con_circum,0.25,3,13,1,235,14,,,,3_con_circum_image_9.png,231.32247741251487,231.57344026250067,,,,,1,1,2024-10-14_17h50.20.807,visual,2024.1.5,120.5129634345996,
5_con_circum,0.25,5,13,2,236,16,,,,5_con_circum_image_66.png,231.68280953749783,231.93302434552461,,,,,1,1,2024-10-14_17h50.20.807,visual,2024.1.5,120.5129634345996,
6_con_totaldot,0.25,6,13,3,237,11,,,,6_con_totaldot_image_16.png,232.03906774551726,232.2891382625152,,,,,1,1,2024-10-14_17h50.20.807,visual,2024.1.5,120.5129634345996,
3_con_totaldot,0.25,3,13,4,238,8,,,,3_con_totaldot_image_43.png,232.39911741249963,232.65508013751824,,,,,1,1,2024-10-14_17h50.20.807,visual,2024.1.5,120.5129634345996,
4_con_circum,0.25,4,13,5,239,15,,,,4_con_circum_image_45.png,232.76633491249524,233.01638288749965,,,,,1,1,2024-10-14_17h50.20.807,visual,2024.1.5,120.5129634345996,
2_con_singledot,0.25,2,13,6,240,1,,,,2_con_singledot_image_18.png,233.1226192875067,233.3736090535007,,,,,1,1,2024-10-14_17h50.20.807,visual,2024.1.5,120.5129634345996,
2_con_totaldot,0.25,2,13,7,241,7,,,,2_con_totaldot_image_7.png,233.48252503750265,233.73491084550042,,,,,1,1,2024-10-14_17h50.20.807,visual,2024.1.5,120.5129634345996,
1_con_singledot,0.25,1,13,8,242,0,,,,1_con_singledot_image_22.png,233.84276441250697,234.0999443875102,,,,,1,1,2024-10-14_17h50.20.807,visual,2024.1.5,120.5129634345996,
6_con_singledot,0.25,6,13,9,243,5,,,,6_con_singledot_image_7.png,234.2070750375162,234.45679584550672,,,,,1,1,2024-10-14_17h50.20.807,visual,2024.1.5,120.5129634345996,
6_con_circum,0.25,6,13,10,244,17,,,,6_con_circum_image_70.png,234.56539232850193,234.81685217851773,,,,,1,1,2024-10-14_17h50.20.807,visual,2024.1.5,120.5129634345996,
4_con_singledot,0.25,4,13,11,245,3,,,,4_con_singledot_image_63.png,234.92455591251493,235.1738293875009,,,,,1,1,2024-10-14_17h50.20.807,visual,2024.1.5,120.5129634345996,
2_con_circum,0.25,2,13,12,246,13,,,,2_con_circum_image_13.png,235.28256282849472,235.53357572050882,,,,,1,1,2024-10-14_17h50.20.807,visual,2024.1.5,120.5129634345996,
4_con_totaldot,0.25,4,13,13,247,9,,,,4_con_totaldot_image_69.png,235.6396973285184,235.8902650535223,,,,,1,1,2024-10-14_17h50.20.807,visual,2024.1.5,120.5129634345996,
5_con_totaldot,0.25,5,13,14,248,10,,,,5_con_totaldot_image_6.png,235.99920053749813,236.2501568455249,,,,,1,1,2024-10-14_17h50.20.807,visual,2024.1.5,120.5129634345996,
5_con_singledot,0.25,5,13,15,249,4,,,,5_con_singledot_image_33.png,236.3560310375062,236.6070265125076,,,,,1,1,2024-10-14_17h50.20.807,visual,2024.1.5,120.5129634345996,
3_con_singledot,0.25,3,13,16,250,2,,,,3_con_singledot_image_7.png,236.71601566252068,236.96665559552494,,,,,1,1,2024-10-14_17h50.20.807,visual,2024.1.5,120.5129634345996,
1_con_totaldot,0.25,1,13,17,251,6,,,,1_con_totaldot_image_18.png,237.07256587049343,237.32508292850108,4.wav,237.42525995802134,6.mp4,237.42525995802134,1,1,2024-10-14_17h50.20.807,visual,2024.1.5,120.5129634345996,
2_con_totaldot,0.25,2,14,0,252,7,,,,2_con_totaldot_image_34.png,239.2645328909741,239.51695392851835,,,,,1,1,2024-10-14_17h50.20.807,visual,2024.1.5,120.5129634345996,
4_con_circum,0.25,4,14,1,253,15,,,,4_con_circum_image_44.png,239.62454237051426,239.87373734551366,,,,,1,1,2024-10-14_17h50.20.807,visual,2024.1.5,120.5129634345996,
6_con_totaldot,0.25,6,14,2,254,11,,,,6_con_totaldot_image_6.png,239.9817476204946,240.23387584550656,,,,,1,1,2024-10-14_17h50.20.807,visual,2024.1.5,120.5129634345996,
5_con_circum,0.25,5,14,3,255,16,,,,5_con_circum_image_9.png,240.3413739125128,240.59994163751836,,,,,1,1,2024-10-14_17h50.20.807,visual,2024.1.5,120.5129634345996,
5_con_totaldot,0.25,5,14,4,256,10,,,,5_con_totaldot_image_57.png,240.7075243705069,240.95898992851144,,,,,1,1,2024-10-14_17h50.20.807,visual,2024.1.5,120.5129634345996,
2_con_circum,0.25,2,14,5,257,13,,,,2_con_circum_image_69.png,241.0661496624991,241.31756584550604,,,,,1,1,2024-10-14_17h50.20.807,visual,2024.1.5,120.5129634345996,
3_con_singledot,0.25,3,14,6,258,2,,,,3_con_singledot_image_5.png,241.42510470350973,241.68353284552578,,,,,1,1,2024-10-14_17h50.20.807,visual,2024.1.5,120.5129634345996,
3_con_circum,0.25,3,14,7,259,14,,,,3_con_circum_image_24.png,241.78925387050842,242.0427785535052,,,,,1,1,2024-10-14_17h50.20.807,visual,2024.1.5,120.5129634345996,
1_con_totaldot,0.25,1,14,8,260,6,,,,1_con_totaldot_image_8.png,242.15049837051194,242.40012747049914,,,,,1,1,2024-10-14_17h50.20.807,visual,2024.1.5,120.5129634345996,
3_con_totaldot,0.25,3,14,9,261,8,,,,3_con_totaldot_image_6.png,242.50792028750877,242.75699680351536,,,,,1,1,2024-10-14_17h50.20.807,visual,2024.1.5,120.5129634345996,
2_con_singledot,0.25,2,14,10,262,1,,,,2_con_singledot_image_22.png,242.86587112049457,243.11712076250697,,,,,1,1,2024-10-14_17h50.20.807,visual,2024.1.5,120.5129634345996,
4_con_singledot,0.25,4,14,11,263,3,,,,4_con_singledot_image_45.png,243.2246821625042,243.4738445125171,,,,,1,1,2024-10-14_17h50.20.807,visual,2024.1.5,120.5129634345996,
1_con_singledot,0.25,1,14,12,264,0,,,,1_con_singledot_image_53.png,243.58235687051203,243.8342278035183,,,,,1,1,2024-10-14_17h50.20.807,visual,2024.1.5,120.5129634345996,
6_con_singledot,0.25,6,14,13,265,5,,,,6_con_singledot_image_58.png,243.94167649549783,244.19225088751992,,,,,1,1,2024-10-14_17h50.20.807,visual,2024.1.5,120.5129634345996,
6_con_circum,0.25,6,14,14,266,17,,,,6_con_circum_image_64.png,244.29886282851223,244.5511168035213,,,,,1,1,2024-10-14_17h50.20.807,visual,2024.1.5,120.5129634345996,
4_con_totaldot,0.25,4,14,15,267,9,,,,4_con_totaldot_image_45.png,244.65834491250573,244.91708476251225,,,,,1,1,2024-10-14_17h50.20.807,visual,2024.1.5,120.5129634345996,
5_con_singledot,0.25,5,14,16,268,4,,,,5_con_singledot_image_44.png,245.024742245517,245.28373513752595,,,,,1,1,2024-10-14_17h50.20.807,visual,2024.1.5,120.5129634345996,
1_con_circum,0.25,1,14,17,269,12,,,,1_con_circum_image_24.png,245.39113157849644,245.64045788749937,4.wav,245.74240916600684,11.mp4,245.74240916600684,1,1,2024-10-14_17h50.20.807,visual,2024.1.5,120.5129634345996,
2_con_totaldot,0.25,2,15,0,270,7,,,,2_con_totaldot_image_43.png,247.57420376596858,247.82378488750547,,,,,1,1,2024-10-14_17h50.20.807,visual,2024.1.5,120.5129634345996,
4_con_circum,0.25,4,15,1,271,15,,,,4_con_circum_image_20.png,247.9323395785061,248.18370926249773,,,,,1,1,2024-10-14_17h50.20.807,visual,2024.1.5,120.5129634345996,
5_con_singledot,0.25,5,15,2,272,4,,,,5_con_singledot_image_9.png,248.28959512051662,248.5401148455043,,,,,1,1,2024-10-14_17h50.20.807,visual,2024.1.5,120.5129634345996,
1_con_circum,0.25,1,15,3,273,12,,,,1_con_circum_image_34.png,248.64975003751462,248.9005253874988,,,,,1,1,2024-10-14_17h50.20.807,visual,2024.1.5,120.5129634345996,
2_con_singledot,0.25,2,15,4,274,1,,,,2_con_singledot_image_10.png,249.00793845350856,249.25708942852216,,,,,1,1,2024-10-14_17h50.20.807,visual,2024.1.5,120.5129634345996,
5_con_totaldot,0.25,5,15,5,275,10,,,,5_con_totaldot_image_9.png,249.36611666249811,249.6177083035058,,,,,1,1,2024-10-14_17h50.20.807,visual,2024.1.5,120.5129634345996,
3_con_totaldot,0.25,3,15,6,276,8,,,,3_con_totaldot_image_3.png,249.72517128750334,249.98280701251352,,,,,1,1,2024-10-14_17h50.20.807,visual,2024.1.5,120.5129634345996,
4_con_singledot,0.25,4,15,7,277,3,,,,4_con_singledot_image_48.png,250.08862187051565,250.34055184550235,,,,,1,1,2024-10-14_17h50.20.807,visual,2024.1.5,120.5129634345996,
1_con_singledot,0.25,1,15,8,278,0,,,,1_con_singledot_image_33.png,250.44927591250163,250.70066197051202,,,,,1,1,2024-10-14_17h50.20.807,visual,2024.1.5,120.5129634345996,
4_con_totaldot,0.25,4,15,9,279,9,,,,4_con_totaldot_image_17.png,250.80664582852043,251.05717267850414,,,,,1,1,2024-10-14_17h50.20.807,visual,2024.1.5,120.5129634345996,
5_con_circum,0.25,5,15,10,280,16,,,,5_con_circum_image_26.png,251.1660620785144,251.41748097050586,,,,,1,1,2024-10-14_17h50.20.807,visual,2024.1.5,120.5129634345996,
3_con_circum,0.25,3,15,11,281,14,,,,3_con_circum_image_40.png,251.52501224550653,251.78371055352036,,,,,1,1,2024-10-14_17h50.20.807,visual,2024.1.5,120.5129634345996,
6_con_circum,0.25,6,15,12,282,17,,,,6_con_circum_image_12.png,251.89214141249542,252.15064838750405,,,,,1,1,2024-10-14_17h50.20.807,visual,2024.1.5,120.5129634345996,
3_con_singledot,0.25,3,15,13,283,2,,,,3_con_singledot_image_34.png,252.25836962049945,252.50902647051262,,,,,1,1,2024-10-14_17h50.20.807,visual,2024.1.5,120.5129634345996,
1_con_totaldot,0.25,1,15,14,284,6,,,,1_con_totaldot_image_32.png,252.61615562050721,252.8670441375056,,,,,1,1,2024-10-14_17h50.20.807,visual,2024.1.5,120.5129634345996,
2_con_circum,0.25,2,15,15,285,13,,,,2_con_circum_image_5.png,252.97276237049957,253.22371484552278,,,,,1,1,2024-10-14_17h50.20.807,visual,2024.1.5,120.5129634345996,
6_con_totaldot,0.25,6,15,16,286,11,,,,6_con_totaldot_image_2.png,253.33274524550072,253.58378405351542,,,,,1,1,2024-10-14_17h50.20.807,visual,2024.1.5,120.5129634345996,
6_con_singledot,0.25,6,15,17,287,5,,,,6_con_singledot_image_2.png,253.69235678749394,253.95076509551146,4.wav,254.05120187500142,11.mp4,254.05120187500142,1,1,2024-10-14_17h50.20.807,visual,2024.1.5,120.5129634345996,
1_con_totaldot,0.25,1,16,0,288,6,,,,1_con_totaldot_image_63.png,255.89045684995946,256.1409131785098,,,,,1,1,2024-10-14_17h50.20.807,visual,2024.1.5,120.5129634345996,
1_con_circum,0.25,1,16,1,289,12,,,,1_con_circum_image_3.png,256.2495343285147,256.50063201250157,,,,,1,1,2024-10-14_17h50.20.807,visual,2024.1.5,120.5129634345996,
5_con_singledot,0.25,5,16,2,290,4,,,,5_con_singledot_image_56.png,256.60803878751466,256.85725530351044,,,,,1,1,2024-10-14_17h50.20.807,visual,2024.1.5,120.5129634345996,
5_con_totaldot,0.25,5,16,3,291,10,,,,5_con_totaldot_image_18.png,256.9657569955045,257.21695247051537,,,,,1,1,2024-10-14_17h50.20.807,visual,2024.1.5,120.5129634345996,
2_con_singledot,0.25,2,16,4,292,1,,,,2_con_singledot_image_57.png,257.32485353750525,257.57414234552414,,,,,1,1,2024-10-14_17h50.20.807,visual,2024.1.5,120.5129634345996,
3_con_singledot,0.25,3,16,5,293,2,,,,3_con_singledot_image_59.png,257.68280791251453,257.933883595519,,,,,1,1,2024-10-14_17h50.20.807,visual,2024.1.5,120.5129634345996,
6_con_totaldot,0.25,6,16,6,294,11,,,,6_con_totaldot_image_54.png,258.04155487050883,258.29056997050645,,,,,1,1,2024-10-14_17h50.20.807,visual,2024.1.5,120.5129634345996,
4_con_totaldot,0.25,4,16,7,295,9,,,,4_con_totaldot_image_20.png,258.3988255375181,258.6507327625062,,,,,1,1,2024-10-14_17h50.20.807,visual,2024.1.5,120.5129634345996,
2_con_totaldot,0.25,2,16,8,296,7,,,,2_con_totaldot_image_50.png,258.75818899549193,259.007246512518,,,,,1,1,2024-10-14_17h50.20.807,visual,2024.1.5,120.5129634345996,
6_con_circum,0.25,6,16,9,297,17,,,,6_con_circum_image_51.png,259.1165901624947,259.36724947050095,,,,,1,1,2024-10-14_17h50.20.807,visual,2024.1.5,120.5129634345996,
3_con_circum,0.25,3,16,10,298,14,,,,3_con_circum_image_15.png,259.4745608285186,259.73380359550936,,,,,1,1,2024-10-14_17h50.20.807,visual,2024.1.5,120.5129634345996,
4_con_singledot,0.25,4,16,11,299,3,,,,4_con_singledot_image_70.png,259.83966262049506,260.0925385955255,,,,,1,1,2024-10-14_17h50.20.807,visual,2024.1.5,120.5129634345996,
1_con_singledot,0.25,1,16,12,300,0,,,,1_con_singledot_image_20.png,260.2000802455179,260.4501054705237,,,,,1,1,2024-10-14_17h50.20.807,visual,2024.1.5,120.5129634345996,
4_con_circum,0.25,4,16,13,301,15,,,,4_con_circum_image_42.png,260.55584516249945,260.80717876251435,,,,,1,1,2024-10-14_17h50.20.807,visual,2024.1.5,120.5129634345996,
6_con_singledot,0.25,6,16,14,302,5,,,,6_con_singledot_image_29.png,260.916743703495,261.16754247050847,,,,,1,1,2024-10-14_17h50.20.807,visual,2024.1.5,120.5129634345996,
5_con_circum,0.25,5,16,15,303,16,,,,5_con_circum_image_33.png,261.27533374550984,261.53431492852394,,,,,1,1,2024-10-14_17h50.20.807,visual,2024.1.5,120.5129634345996,
2_con_circum,0.25,2,16,16,304,13,,,,2_con_circum_image_56.png,261.64198995351325,261.8930682205013,,,,,1,1,2024-10-14_17h50.20.807,visual,2024.1.5,120.5129634345996,
3_con_totaldot,0.25,3,16,17,305,8,,,,3_con_totaldot_image_47.png,262.000538745505,262.25085930352213,2.wav,262.35142529100995,13.mp4,262.35142529100995,1,1,2024-10-14_17h50.20.807,visual,2024.1.5,120.5129634345996,
1_con_singledot,0.25,1,17,0,306,0,,,,1_con_singledot_image_8.png,264.1895550579822,264.44050322051623,,,,,1,1,2024-10-14_17h50.20.807,visual,2024.1.5,120.5129634345996,
3_con_totaldot,0.25,3,17,1,307,8,,,,3_con_totaldot_image_48.png,264.5488532034971,264.8007831375056,,,,,1,1,2024-10-14_17h50.20.807,visual,2024.1.5,120.5129634345996,
2_con_circum,0.25,2,17,2,308,13,,,,2_con_circum_image_35.png,264.9079920785036,265.157322012505,,,,,1,1,2024-10-14_17h50.20.807,visual,2024.1.5,120.5129634345996,
4_con_totaldot,0.25,4,17,3,309,9,,,,4_con_totaldot_image_1.png,265.2661109955108,265.5171925125236,,,,,1,1,2024-10-14_17h50.20.807,visual,2024.1.5,120.5129634345996,
4_con_circum,0.25,4,17,4,310,15,,,,4_con_circum_image_28.png,265.62473762051667,265.87387697049996,,,,,1,1,2024-10-14_17h50.20.807,visual,2024.1.5,120.5129634345996,
1_con_totaldot,0.25,1,17,5,311,6,,,,1_con_totaldot_image_64.png,265.98236070350976,266.23403209550304,,,,,1,1,2024-10-14_17h50.20.807,visual,2024.1.5,120.5129634345996,
6_con_circum,0.25,6,17,6,312,17,,,,6_con_circum_image_15.png,266.34133224551914,266.59038655349866,,,,,1,1,2024-10-14_17h50.20.807,visual,2024.1.5,120.5129634345996,
2_con_singledot,0.25,2,17,7,313,1,,,,2_con_singledot_image_61.png,266.6995199124969,266.95045213751143,,,,,1,1,2024-10-14_17h50.20.807,visual,2024.1.5,120.5129634345996,
5_con_singledot,0.25,5,17,8,314,4,,,,5_con_singledot_image_31.png,267.0561348285002,267.3072004705085,,,,,1,1,2024-10-14_17h50.20.807,visual,2024.1.5,120.5129634345996,
6_con_totaldot,0.25,6,17,9,315,11,,,,6_con_totaldot_image_17.png,267.415486078494,267.6672064285143,,,,,1,1,2024-10-14_17h50.20.807,visual,2024.1.5,120.5129634345996,
3_con_singledot,0.25,3,17,10,316,2,,,,3_con_singledot_image_60.png,267.77295478749437,268.026479762519,,,,,1,1,2024-10-14_17h50.20.807,visual,2024.1.5,120.5129634345996,
4_con_singledot,0.25,4,17,11,317,3,,,,4_con_singledot_image_38.png,268.1335054535186,268.3843043455039,,,,,1,1,2024-10-14_17h50.20.807,visual,2024.1.5,120.5129634345996,
3_con_circum,0.25,3,17,12,318,14,,,,3_con_circum_image_59.png,268.49198770350193,268.75028355350366,,,,,1,1,2024-10-14_17h50.20.807,visual,2024.1.5,120.5129634345996,
6_con_singledot,0.25,6,17,13,319,5,,,,6_con_singledot_image_65.png,268.85661016249213,269.110215303523,,,,,1,1,2024-10-14_17h50.20.807,visual,2024.1.5,120.5129634345996,
2_con_totaldot,0.25,2,17,14,320,7,,,,2_con_totaldot_image_45.png,269.21703920349245,269.46723592852356,,,,,1,1,2024-10-14_17h50.20.807,visual,2024.1.5,120.5129634345996,
1_con_circum,0.25,1,17,15,321,12,,,,1_con_circum_image_56.png,269.57509570349356,269.8346054285124,,,,,1,1,2024-10-14_17h50.20.807,visual,2024.1.5,120.5129634345996,
5_con_circum,0.25,5,17,16,322,16,,,,5_con_circum_image_34.png,269.94195153749314,270.1910395125218,,,,,1,1,2024-10-14_17h50.20.807,visual,2024.1.5,120.5129634345996,
5_con_totaldot,0.25,5,17,17,323,10,,,,5_con_totaldot_image_19.png,270.29961503749945,270.550385095505,4.wav,270.6491090830241,14.mp4,270.6491090830241,1,1,2024-10-14_17h50.20.807,visual,2024.1.5,120.5129634345996,
4_con_circum,0.25,4,18,0,324,15,,,,4_con_circum_image_49.png,272.4826265579788,272.7343293034995,,,,,1,1,2024-10-14_17h50.20.807,visual,2024.1.5,120.5129634345996,
2_con_circum,0.25,2,18,1,325,13,,,,2_con_circum_image_19.png,272.8401832035044,273.0906787625048,,,,,1,1,2024-10-14_17h50.20.807,visual,2024.1.5,120.5129634345996,
1_con_circum,0.25,1,18,2,326,12,,,,1_con_circum_image_55.png,273.1998038285121,273.4510796785238,,,,,1,1,2024-10-14_17h50.20.807,visual,2024.1.5,120.5129634345996,
5_con_circum,0.25,5,18,3,327,16,,,,5_con_circum_image_52.png,273.55851774550973,273.80941392851526,,,,,1,1,2024-10-14_17h50.20.807,visual,2024.1.5,120.5129634345996,
3_con_circum,0.25,3,18,4,328,14,,,,3_con_circum_image_36.png,273.9166504955094,274.167487720499,,,,,1,1,2024-10-14_17h50.20.807,visual,2024.1.5,120.5129634345996,
2_con_singledot,0.25,2,18,5,329,1,,,,2_con_singledot_image_66.png,274.2751865784987,274.53459692851754,,,,,1,1,2024-10-14_17h50.20.807,visual,2024.1.5,120.5129634345996,
3_con_singledot,0.25,3,18,6,330,2,,,,3_con_singledot_image_40.png,274.6421971205156,274.90035322050096,,,,,1,1,2024-10-14_17h50.20.807,visual,2024.1.5,120.5129634345996,
5_con_singledot,0.25,5,18,7,331,4,,,,5_con_singledot_image_55.png,275.00612778750946,275.257535095507,,,,,1,1,2024-10-14_17h50.20.807,visual,2024.1.5,120.5129634345996,
6_con_circum,0.25,6,18,8,332,17,,,,6_con_circum_image_59.png,275.36614441250566,275.617814220523,,,,,1,1,2024-10-14_17h50.20.807,visual,2024.1.5,120.5129634345996,
4_con_totaldot,0.25,4,18,9,333,9,,,,4_con_totaldot_image_28.png,275.7252987035201,275.9758353875135,,,,,1,1,2024-10-14_17h50.20.807,visual,2024.1.5,120.5129634345996,
3_con_totaldot,0.25,3,18,10,334,8,,,,3_con_totaldot_image_35.png,276.0830320374982,276.33367322051197,,,,,1,1,2024-10-14_17h50.20.807,visual,2024.1.5,120.5129634345996,
6_con_singledot,0.25,6,18,11,335,5,,,,6_con_singledot_image_45.png,276.4394466625119,276.6909945124993,,,,,1,1,2024-10-14_17h50.20.807,visual,2024.1.5,120.5129634345996,
1_con_totaldot,0.25,1,18,12,336,6,,,,1_con_totaldot_image_41.png,276.79984699549385,277.0515524705173,,,,,1,1,2024-10-14_17h50.20.807,visual,2024.1.5,120.5129634345996,
4_con_singledot,0.25,4,18,13,337,3,,,,4_con_singledot_image_51.png,277.1592216205201,277.4167434705072,,,,,1,1,2024-10-14_17h50.20.807,visual,2024.1.5,120.5129634345996,
6_con_totaldot,0.25,6,18,14,338,11,,,,6_con_totaldot_image_55.png,277.52252353749935,277.7738930955005,,,,,1,1,2024-10-14_17h50.20.807,visual,2024.1.5,120.5129634345996,
2_con_totaldot,0.25,2,18,15,339,7,,,,2_con_totaldot_image_22.png,277.88245607850257,278.1342025955149,,,,,1,1,2024-10-14_17h50.20.807,visual,2024.1.5,120.5129634345996,
5_con_totaldot,0.25,5,18,16,340,10,,,,5_con_totaldot_image_61.png,278.2415254955005,278.4927475535136,,,,,1,1,2024-10-14_17h50.20.807,visual,2024.1.5,120.5129634345996,
1_con_singledot,0.25,1,18,17,341,0,,,,1_con_singledot_image_2.png,278.59992416251333,278.8504646375135,2.wav,278.950270500005,14.mp4,278.950270500005,1,1,2024-10-14_17h50.20.807,visual,2024.1.5,120.5129634345996,
5_con_singledot,0.25,5,19,0,342,4,,,,5_con_singledot_image_27.png,280.77482084995717,281.0241533035063,,,,,1,1,2024-10-14_17h50.20.807,visual,2024.1.5,120.5129634345996,
2_con_singledot,0.25,2,19,1,343,1,,,,2_con_singledot_image_27.png,281.13355562051873,281.3844393035164,,,,,1,1,2024-10-14_17h50.20.807,visual,2024.1.5,120.5129634345996,
6_con_totaldot,0.25,6,19,2,344,11,,,,6_con_totaldot_image_46.png,281.49167816249536,281.7407118875184,,,,,1,1,2024-10-14_17h50.20.807,visual,2024.1.5,120.5129634345996,
3_con_totaldot,0.25,3,19,3,345,8,,,,3_con_totaldot_image_31.png,281.8496997034992,282.1007705955184,,,,,1,1,2024-10-14_17h50.20.807,visual,2024.1.5,120.5129634345996,
3_con_singledot,0.25,3,19,4,346,2,,,,3_con_singledot_image_70.png,282.2083922035119,282.4593480954994,,,,,1,1,2024-10-14_17h50.20.807,visual,2024.1.5,120.5129634345996,
3_con_circum,0.25,3,19,5,347,14,,,,3_con_circum_image_69.png,282.56693907849257,282.8174173455103,,,,,1,1,2024-10-14_17h50.20.807,visual,2024.1.5,120.5129634345996,
1_con_totaldot,0.25,1,19,6,348,6,,,,1_con_totaldot_image_13.png,282.9232700785098,283.17420788750167,,,,,1,1,2024-10-14_17h50.20.807,visual,2024.1.5,120.5129634345996,
4_con_circum,0.25,4,19,7,349,15,,,,4_con_circum_image_36.png,283.2831495785096,283.5340226785105,,,,,1,1,2024-10-14_17h50.20.807,visual,2024.1.5,120.5129634345996,
6_con_singledot,0.25,6,19,8,350,5,,,,6_con_singledot_image_49.png,283.63978362050256,283.8930680535035,,,,,1,1,2024-10-14_17h50.20.807,visual,2024.1.5,120.5129634345996,
6_con_circum,0.25,6,19,9,351,17,,,,6_con_circum_image_27.png,284.0003641205141,284.2513061375124,,,,,1,1,2024-10-14_17h50.20.807,visual,2024.1.5,120.5129634345996,
4_con_totaldot,0.25,4,19,10,352,9,,,,4_con_totaldot_image_58.png,284.35895970351993,284.60969967852577,,,,,1,1,2024-10-14_17h50.20.807,visual,2024.1.5,120.5129634345996,
4_con_singledot,0.25,4,19,11,353,3,,,,4_con_singledot_image_58.png,284.7169447035005,284.96764097051926,,,,,1,1,2024-10-14_17h50.20.807,visual,2024.1.5,120.5129634345996,
5_con_circum,0.25,5,19,12,354,16,,,,5_con_circum_image_62.png,285.0734413704951,285.3243388875038,,,,,1,1,2024-10-14_17h50.20.807,visual,2024.1.5,120.5129634345996,
1_con_circum,0.25,1,19,13,355,12,,,,1_con_circum_image_16.png,285.43317362050874,285.6844655954977,,,,,1,1,2024-10-14_17h50.20.807,visual,2024.1.5,120.5129634345996,
2_con_totaldot,0.25,2,19,14,356,7,,,,2_con_totaldot_image_23.png,285.79204191251773,286.0505732205114,,,,,1,1,2024-10-14_17h50.20.807,visual,2024.1.5,120.5129634345996,
5_con_totaldot,0.25,5,19,15,357,10,,,,5_con_totaldot_image_17.png,286.1651714955107,286.417670053523,,,,,1,1,2024-10-14_17h50.20.807,visual,2024.1.5,120.5129634345996,
2_con_circum,0.25,2,19,16,358,13,,,,2_con_circum_image_15.png,286.52353224550023,286.7743433875206,,,,,1,1,2024-10-14_17h50.20.807,visual,2024.1.5,120.5129634345996,
1_con_singledot,0.25,1,19,17,359,0,,,,1_con_singledot_image_68.png,286.88359237050753,287.13421642850733,1.wav,287.2328095410194,7.mp4,287.2328095410194,1,1,2024-10-14_17h50.20.807,visual,2024.1.5,120.5129634345996,
4_con_singledot,0.25,4,20,0,360,3,,,,4_con_singledot_image_24.png,289.07580551597056,289.3342805125052,,,,,1,1,2024-10-14_17h50.20.807,visual,2024.1.5,120.5129634345996,
4_con_totaldot,0.25,4,20,1,361,9,,,,4_con_totaldot_image_15.png,289.4420917455165,289.7005393455096,,,,,1,1,2024-10-14_17h50.20.807,visual,2024.1.5,120.5129634345996,
6_con_totaldot,0.25,6,20,2,362,11,,,,6_con_totaldot_image_38.png,289.8080987455207,290.0675293455191,,,,,1,1,2024-10-14_17h50.20.807,visual,2024.1.5,120.5129634345996,
5_con_circum,0.25,5,20,3,363,16,,,,5_con_circum_image_40.png,290.1734649955062,290.42435417851664,,,,,1,1,2024-10-14_17h50.20.807,visual,2024.1.5,120.5129634345996,
1_con_totaldot,0.25,1,20,4,364,6,,,,1_con_totaldot_image_51.png,290.53321182851795,290.78452192849943,,,,,1,1,2024-10-14_17h50.20.807,visual,2024.1.5,120.5129634345996,
4_con_circum,0.25,4,20,5,365,15,,,,4_con_circum_image_35.png,290.8917192455148,291.14249476252587,,,,,1,1,2024-10-14_17h50.20.807,visual,2024.1.5,120.5129634345996,
3_con_totaldot,0.25,3,20,6,366,8,,,,3_con_totaldot_image_9.png,291.25010803751064,291.5017055955017,,,,,1,1,2024-10-14_17h50.20.807,visual,2024.1.5,120.5129634345996,
5_con_singledot,0.25,5,20,7,367,4,,,,5_con_singledot_image_6.png,291.6091163705161,291.8679320125142,,,,,1,1,2024-10-14_17h50.20.807,visual,2024.1.5,120.5129634345996,
2_con_circum,0.25,2,20,8,368,13,,,,2_con_circum_image_8.png,291.9753751625132,292.22457626250105,,,,,1,1,2024-10-14_17h50.20.807,visual,2024.1.5,120.5129634345996,
2_con_totaldot,0.25,2,20,9,369,7,,,,2_con_totaldot_image_62.png,292.3332766205014,292.5845814705011,,,,,1,1,2024-10-14_17h50.20.807,visual,2024.1.5,120.5129634345996,
3_con_singledot,0.25,3,20,10,370,2,,,,3_con_singledot_image_64.png,292.69207132851005,292.95088534552485,,,,,1,1,2024-10-14_17h50.20.807,visual,2024.1.5,120.5129634345996,
3_con_circum,0.25,3,20,11,371,14,,,,3_con_circum_image_8.png,293.05866437052026,293.31814151252036,,,,,1,1,2024-10-14_17h50.20.807,visual,2024.1.5,120.5129634345996,
2_con_singledot,0.25,2,20,12,372,1,,,,2_con_singledot_image_44.png,293.4256044954993,293.68424872050525,,,,,1,1,2024-10-14_17h50.20.807,visual,2024.1.5,120.5129634345996,
1_con_singledot,0.25,1,20,13,373,0,,,,1_con_singledot_image_40.png,293.791608203511,294.04272455350144,,,,,1,1,2024-10-14_17h50.20.807,visual,2024.1.5,120.5129634345996,
5_con_totaldot,0.25,5,20,14,374,10,,,,5_con_totaldot_image_63.png,294.1499486625136,294.40129180352085,,,,,1,1,2024-10-14_17h50.20.807,visual,2024.1.5,120.5129634345996,
1_con_circum,0.25,1,20,15,375,12,,,,1_con_circum_image_9.png,294.50861445350455,294.7596208875242,,,,,1,1,2024-10-14_17h50.20.807,visual,2024.1.5,120.5129634345996,
6_con_singledot,0.25,6,20,16,376,5,,,,6_con_singledot_image_12.png,294.8667719125107,295.1177011375024,,,,,1,1,2024-10-14_17h50.20.807,visual,2024.1.5,120.5129634345996,
6_con_circum,0.25,6,20,17,377,17,,,,6_con_circum_image_18.png,295.22501612051855,295.4755754285201,1.wav,295.57674329102156,16.mp4,295.57674329102156,1,1,2024-10-14_17h50.20.807,visual,2024.1.5,120.5129634345996,
6_con_singledot,0.25,6,21,0,378,5,,,,6_con_singledot_image_41.png,297.41902530797523,297.674626928498,,,,,1,1,2024-10-14_17h50.20.807,visual,2024.1.5,120.5129634345996,
1_con_totaldot,0.25,1,21,1,379,6,,,,1_con_totaldot_image_49.png,297.7833592035051,298.0342775954981,,,,,1,1,2024-10-14_17h50.20.807,visual,2024.1.5,120.5129634345996,
3_con_singledot,0.25,3,21,2,380,2,,,,3_con_singledot_image_8.png,298.14001437051337,298.4011065955041,,,,,1,1,2024-10-14_17h50.20.807,visual,2024.1.5,120.5129634345996,
1_con_singledot,0.25,1,21,3,381,0,,,,1_con_singledot_image_65.png,298.50692391251795,298.75960217850513,,,,,1,1,2024-10-14_17h50.20.807,visual,2024.1.5,120.5129634345996,
2_con_totaldot,0.25,2,21,4,382,7,,,,2_con_totaldot_image_56.png,298.86729628751635,299.1177323035139,,,,,1,1,2024-10-14_17h50.20.807,visual,2024.1.5,120.5129634345996,
4_con_circum,0.25,4,21,5,383,15,,,,4_con_circum_image_19.png,299.2235474955116,299.4744007625035,,,,,1,1,2024-10-14_17h50.20.807,visual,2024.1.5,120.5129634345996,
5_con_totaldot,0.25,5,21,6,384,10,,,,5_con_totaldot_image_40.png,299.583449287503,299.83478834550476,,,,,1,1,2024-10-14_17h50.20.807,visual,2024.1.5,120.5129634345996,
2_con_circum,0.25,2,21,7,385,13,,,,2_con_circum_image_11.png,299.942306328495,300.20106767851973,,,,,1,1,2024-10-14_17h50.20.807,visual,2024.1.5,120.5129634345996,
6_con_circum,0.25,6,21,8,386,17,,,,6_con_circum_image_35.png,300.3085859535087,300.55938363751045,,,,,1,1,2024-10-14_17h50.20.807,visual,2024.1.5,120.5129634345996,
5_con_singledot,0.25,5,21,9,387,4,,,,5_con_singledot_image_65.png,300.66681124551104,300.91693297052404,,,,,1,1,2024-10-14_17h50.20.807,visual,2024.1.5,120.5129634345996,
4_con_totaldot,0.25,4,21,10,388,9,,,,4_con_totaldot_image_5.png,301.0228364124952,301.27661676251444,,,,,1,1,2024-10-14_17h50.20.807,visual,2024.1.5,120.5129634345996,
1_con_circum,0.25,1,21,11,389,12,,,,1_con_circum_image_2.png,301.3846295784926,301.6344987625256,,,,,1,1,2024-10-14_17h50.20.807,visual,2024.1.5,120.5129634345996,
2_con_singledot,0.25,2,21,12,390,1,,,,2_con_singledot_image_6.png,301.74049824550747,301.9903443035204,,,,,1,1,2024-10-14_17h50.20.807,visual,2024.1.5,120.5129634345996,
3_con_circum,0.25,3,21,13,391,14,,,,3_con_circum_image_54.png,302.1001812034985,302.35148538751525,,,,,1,1,2024-10-14_17h50.20.807,visual,2024.1.5,120.5129634345996,
5_con_circum,0.25,5,21,14,392,16,,,,5_con_circum_image_63.png,302.45916816250536,302.7175544705009,,,,,1,1,2024-10-14_17h50.20.807,visual,2024.1.5,120.5129634345996,
3_con_totaldot,0.25,3,21,15,393,8,,,,3_con_totaldot_image_19.png,302.82487874549696,303.07501855350563,,,,,1,1,2024-10-14_17h50.20.807,visual,2024.1.5,120.5129634345996,
4_con_singledot,0.25,4,21,16,394,3,,,,4_con_singledot_image_69.png,303.18341382850775,303.434993553505,,,,,1,1,2024-10-14_17h50.20.807,visual,2024.1.5,120.5129634345996,
6_con_totaldot,0.25,6,21,17,395,11,,,,6_con_totaldot_image_60.png,303.5425632875005,303.80138588752595,2.wav,303.90004204100114,3.mp4,303.90004204100114,1,1,2024-10-14_17h50.20.807,visual,2024.1.5,120.5129634345996,
5_con_totaldot,0.25,5,22,0,396,10,,,,5_con_totaldot_image_49.png,305.7257186409726,305.9847502625256,,,,,1,1,2024-10-14_17h50.20.807,visual,2024.1.5,120.5129634345996,
6_con_totaldot,0.25,6,22,1,397,11,,,,6_con_totaldot_image_3.png,306.09219570351996,306.35035647050825,,,,,1,1,2024-10-14_17h50.20.807,visual,2024.1.5,120.5129634345996,
3_con_totaldot,0.25,3,22,2,398,8,,,,3_con_totaldot_image_68.png,306.4561778704985,306.7094730955199,,,,,1,1,2024-10-14_17h50.20.807,visual,2024.1.5,120.5129634345996,
1_con_circum,0.25,1,22,3,399,12,,,,1_con_circum_image_41.png,306.8167899534921,307.06771905351195,,,,,1,1,2024-10-14_17h50.20.807,visual,2024.1.5,120.5129634345996,
2_con_singledot,0.25,2,22,4,400,1,,,,2_con_singledot_image_54.png,307.1734042455093,307.4261309285124,,,,,1,1,2024-10-14_17h50.20.807,visual,2024.1.5,120.5129634345996,
1_con_totaldot,0.25,1,22,5,401,6,,,,1_con_totaldot_image_19.png,307.5334474125004,307.7847656785219,,,,,1,1,2024-10-14_17h50.20.807,visual,2024.1.5,120.5129634345996,
5_con_singledot,0.25,5,22,6,402,4,,,,5_con_singledot_image_13.png,307.89281582851544,308.15158563751027,,,,,1,1,2024-10-14_17h50.20.807,visual,2024.1.5,120.5129634345996,
2_con_circum,0.25,2,22,7,403,13,,,,2_con_circum_image_46.png,308.2590467035072,308.5178848035051,,,,,1,1,2024-10-14_17h50.20.807,visual,2024.1.5,120.5129634345996,
4_con_singledot,0.25,4,22,8,404,3,,,,4_con_singledot_image_2.png,308.62530032849753,308.8744589705078,,,,,1,1,2024-10-14_17h50.20.807,visual,2024.1.5,120.5129634345996,
2_con_totaldot,0.25,2,22,9,405,7,,,,2_con_totaldot_image_1.png,308.9835651205096,309.2344576785166,,,,,1,1,2024-10-14_17h50.20.807,visual,2024.1.5,120.5129634345996,
4_con_circum,0.25,4,22,10,406,15,,,,4_con_circum_image_21.png,309.3421727455163,309.5968918034981,,,,,1,1,2024-10-14_17h50.20.807,visual,2024.1.5,120.5129634345996,
3_con_circum,0.25,3,22,11,407,14,,,,3_con_circum_image_25.png,309.709118162503,309.96142684552467,,,,,1,1,2024-10-14_17h50.20.807,visual,2024.1.5,120.5129634345996,
6_con_circum,0.25,6,22,12,408,17,,,,6_con_circum_image_68.png,310.06994732849415,310.358962095523,,,,,1,1,2024-10-14_17h50.20.807,visual,2024.1.5,120.5129634345996,
1_con_singledot,0.25,1,22,13,409,0,,,,1_con_singledot_image_10.png,310.4688456205069,310.7253556374984,,,,,1,1,2024-10-14_17h50.20.807,visual,2024.1.5,120.5129634345996,
3_con_singledot,0.25,3,22,14,410,2,,,,3_con_singledot_image_27.png,310.8333735375083,311.0837328455003,,,,,1,1,2024-10-14_17h50.20.807,visual,2024.1.5,120.5129634345996,
6_con_singledot,0.25,6,22,15,411,5,,,,6_con_singledot_image_28.png,311.18960837049525,311.44066892850094,,,,,1,1,2024-10-14_17h50.20.807,visual,2024.1.5,120.5129634345996,
4_con_totaldot,0.25,4,22,16,412,9,,,,4_con_totaldot_image_9.png,311.55031787049955,311.80104584550133,,,,,1,1,2024-10-14_17h50.20.807,visual,2024.1.5,120.5129634345996,
5_con_circum,0.25,5,22,17,413,16,,,,5_con_circum_image_30.png,311.90715474549796,312.15812317850066,4.wav,312.2594683750067,7.mp4,312.2594683750067,1,1,2024-10-14_17h50.20.807,visual,2024.1.5,120.5129634345996,
6_con_singledot,0.25,6,23,0,414,5,,,,6_con_singledot_image_61.png,314.0910709749616,314.3413643455191,,,,,1,1,2024-10-14_17h50.20.807,visual,2024.1.5,120.5129634345996,
2_con_totaldot,0.25,2,23,1,415,7,,,,2_con_totaldot_image_47.png,314.4500788285106,314.70134251251,,,,,1,1,2024-10-14_17h50.20.807,visual,2024.1.5,120.5129634345996,
5_con_circum,0.25,5,23,2,416,16,,,,5_con_circum_image_10.png,314.8077312455163,315.0576451375149,,,,,1,1,2024-10-14_17h50.20.807,visual,2024.1.5,120.5129634345996,
3_con_singledot,0.25,3,23,3,417,2,,,,3_con_singledot_image_9.png,315.16750437049194,315.41774755350195,,,,,1,1,2024-10-14_17h50.20.807,visual,2024.1.5,120.5129634345996,
5_con_singledot,0.25,5,23,4,418,4,,,,5_con_singledot_image_35.png,315.5240351625136,315.7748313875112,,,,,1,1,2024-10-14_17h50.20.807,visual,2024.1.5,120.5129634345996,
4_con_singledot,0.25,4,23,5,419,3,,,,4_con_singledot_image_23.png,315.88340399549924,316.13722884550805,,,,,1,1,2024-10-14_17h50.20.807,visual,2024.1.5,120.5129634345996,
6_con_totaldot,0.25,6,23,6,420,11,,,,6_con_totaldot_image_22.png,316.2436932875018,316.50211159550815,,,,,1,1,2024-10-14_17h50.20.807,visual,2024.1.5,120.5129634345996,
5_con_totaldot,0.25,5,23,7,421,10,,,,5_con_totaldot_image_52.png,316.60978299549896,316.868414970499,,,,,1,1,2024-10-14_17h50.20.807,visual,2024.1.5,120.5129634345996,
3_con_circum,0.25,3,23,8,422,14,,,,3_con_circum_image_62.png,316.97624007849953,317.234344720497,,,,,1,1,2024-10-14_17h50.20.807,visual,2024.1.5,120.5129634345996,
6_con_circum,0.25,6,23,9,423,17,,,,6_con_circum_image_56.png,317.3401752035017,317.5905041375139,,,,,1,1,2024-10-14_17h50.20.807,visual,2024.1.5,120.5129634345996,
2_con_singledot,0.25,2,23,10,424,1,,,,2_con_singledot_image_38.png,317.70088666251394,317.9513556375226,,,,,1,1,2024-10-14_17h50.20.807,visual,2024.1.5,120.5129634345996,
1_con_totaldot,0.25,1,23,11,425,6,,,,1_con_totaldot_image_46.png,318.05906245349905,318.3101530534972,,,,,1,1,2024-10-14_17h50.20.807,visual,2024.1.5,120.5129634345996,
1_con_circum,0.25,1,23,12,426,12,,,,1_con_circum_image_23.png,318.4176580785017,318.6684628035058,,,,,1,1,2024-10-14_17h50.20.807,visual,2024.1.5,120.5129634345996,
2_con_circum,0.25,2,23,13,427,13,,,,2_con_circum_image_45.png,318.7761165375006,319.03440567851646,,,,,1,1,2024-10-14_17h50.20.807,visual,2024.1.5,120.5129634345996,
3_con_totaldot,0.25,3,23,14,428,8,,,,3_con_totaldot_image_4.png,319.1401119535032,319.3914116375148,,,,,1,1,2024-10-14_17h50.20.807,visual,2024.1.5,120.5129634345996,
4_con_circum,0.25,4,23,15,429,15,,,,4_con_circum_image_57.png,319.5007764535141,319.7509740955196,,,,,1,1,2024-10-14_17h50.20.807,visual,2024.1.5,120.5129634345996,
4_con_totaldot,0.25,4,23,16,430,9,,,,4_con_totaldot_image_24.png,319.8569075375155,320.1094578875112,,,,,1,1,2024-10-14_17h50.20.807,visual,2024.1.5,120.5129634345996,
1_con_singledot,0.25,1,23,17,431,0,,,,1_con_singledot_image_30.png,320.21702370351994,320.4683078035072,3.wav,320.56959125000867,7.mp4,320.56959125000867,1,1,2024-10-14_17h50.20.807,visual,2024.1.5,120.5129634345996,
2_con_singledot,0.25,2,24,0,432,1,,,,2_con_singledot_image_1.png,322.40160489095723,322.6513818875013,,,,,1,1,2024-10-14_17h50.20.807,visual,2024.1.5,120.5129634345996,
2_con_circum,0.25,2,24,1,433,13,,,,2_con_circum_image_27.png,322.758787162503,323.0080990125192,,,,,1,1,2024-10-14_17h50.20.807,visual,2024.1.5,120.5129634345996,
3_con_singledot,0.25,3,24,2,434,2,,,,3_con_singledot_image_24.png,323.1170512455166,323.36857167850246,,,,,1,1,2024-10-14_17h50.20.807,visual,2024.1.5,120.5129634345996,
4_con_totaldot,0.25,4,24,3,435,9,,,,4_con_totaldot_image_2.png,323.476006203494,323.7346414705156,,,,,1,1,2024-10-14_17h50.20.807,visual,2024.1.5,120.5129634345996,
2_con_totaldot,0.25,2,24,4,436,7,,,,2_con_totaldot_image_30.png,323.84070053750764,324.09141988750196,,,,,1,1,2024-10-14_17h50.20.807,visual,2024.1.5,120.5129634345996,
6_con_circum,0.25,6,24,5,437,17,,,,6_con_circum_image_69.png,324.2001550375018,324.4514525955077,,,,,1,1,2024-10-14_17h50.20.807,visual,2024.1.5,120.5129634345996,
1_con_singledot,0.25,1,24,6,438,0,,,,1_con_singledot_image_56.png,324.5590028285107,324.8080695955199,,,,,1,1,2024-10-14_17h50.20.807,visual,2024.1.5,120.5129634345996,
4_con_circum,0.25,4,24,7,439,15,,,,4_con_circum_image_33.png,324.91718399549717,325.1680385535059,,,,,1,1,2024-10-14_17h50.20.807,visual,2024.1.5,120.5129634345996,
3_con_totaldot,0.25,3,24,8,440,8,,,,3_con_totaldot_image_21.png,325.27388470350996,325.524706428498,,,,,1,1,2024-10-14_17h50.20.807,visual,2024.1.5,120.5129634345996,
5_con_singledot,0.25,5,24,9,441,4,,,,5_con_singledot_image_39.png,325.6344152875128,325.88436734551794,,,,,1,1,2024-10-14_17h50.20.807,visual,2024.1.5,120.5129634345996,
5_con_circum,0.25,5,24,10,442,16,,,,5_con_circum_image_70.png,325.99016082850284,326.2414224705193,,,,,1,1,2024-10-14_17h50.20.807,visual,2024.1.5,120.5129634345996,
3_con_circum,0.25,3,24,11,443,14,,,,3_con_circum_image_43.png,326.35050682850414,326.60157263751023,,,,,1,1,2024-10-14_17h50.20.807,visual,2024.1.5,120.5129634345996,
1_con_circum,0.25,1,24,12,444,12,,,,1_con_circum_image_12.png,326.7092219955113,326.9685593454982,,,,,1,1,2024-10-14_17h50.20.807,visual,2024.1.5,120.5129634345996,
4_con_singledot,0.25,4,24,13,445,3,,,,4_con_singledot_image_55.png,327.07636603749705,327.3355290535022,,,,,1,1,2024-10-14_17h50.20.807,visual,2024.1.5,120.5129634345996,
1_con_totaldot,0.25,1,24,14,446,6,,,,1_con_totaldot_image_55.png,327.4429729955038,327.70152622051535,,,,,1,1,2024-10-14_17h50.20.807,visual,2024.1.5,120.5129634345996,
6_con_totaldot,0.25,6,24,15,447,11,,,,6_con_totaldot_image_35.png,327.8077336205053,328.06016238750306,,,,,1,1,2024-10-14_17h50.20.807,visual,2024.1.5,120.5129634345996,
6_con_singledot,0.25,6,24,16,448,5,,,,6_con_singledot_image_70.png,328.1674336205062,328.41852967852026,,,,,1,1,2024-10-14_17h50.20.807,visual,2024.1.5,120.5129634345996,
5_con_totaldot,0.25,5,24,17,449,10,,,,5_con_totaldot_image_68.png,328.52620420350576,328.7772442625195,2.wav,328.87818037500256,11.mp4,328.87818037500256,1,1,2024-10-14_17h50.20.807,visual,2024.1.5,120.5129634345996,
4_con_singledot,0.25,4,25,0,450,3,,,,4_con_singledot_image_3.png,330.71821793295675,330.9684217625239,,,,,1,1,2024-10-14_17h50.20.807,visual,2024.1.5,120.5129634345996,
2_con_totaldot,0.25,2,25,1,451,7,,,,2_con_totaldot_image_32.png,331.0762752455077,331.3346500125248,,,,,1,1,2024-10-14_17h50.20.807,visual,2024.1.5,120.5129634345996,
5_con_circum,0.25,5,25,2,452,16,,,,5_con_circum_image_24.png,331.44060966252,331.6917558875051,,,,,1,1,2024-10-14_17h50.20.807,visual,2024.1.5,120.5129634345996,
4_con_circum,0.25,4,25,3,453,15,,,,4_con_circum_image_52.png,331.800251703494,332.0518659285211,,,,,1,1,2024-10-14_17h50.20.807,visual,2024.1.5,120.5129634345996,
6_con_totaldot,0.25,6,25,4,454,11,,,,6_con_totaldot_image_48.png,332.1592654535081,332.4097918875108,,,,,1,1,2024-10-14_17h50.20.807,visual,2024.1.5,120.5129634345996,
2_con_circum,0.25,2,25,5,455,13,,,,2_con_circum_image_64.png,332.5177163285145,332.7680808875069,,,,,1,1,2024-10-14_17h50.20.807,visual,2024.1.5,120.5129634345996,
5_con_totaldot,0.25,5,25,6,456,10,,,,5_con_totaldot_image_59.png,332.87579078749985,333.1274816374993,,,,,1,1,2024-10-14_17h50.20.807,visual,2024.1.5,120.5129634345996,
3_con_circum,0.25,3,25,7,457,14,,,,3_con_circum_image_31.png,333.233430745505,333.4852866785135,,,,,1,1,2024-10-14_17h50.20.807,visual,2024.1.5,120.5129634345996,
3_con_singledot,0.25,3,25,8,458,2,,,,3_con_singledot_image_54.png,333.5929080374946,333.85151584551784,,,,,1,1,2024-10-14_17h50.20.807,visual,2024.1.5,120.5129634345996,
1_con_circum,0.25,1,25,9,459,12,,,,1_con_circum_image_13.png,333.9593602455163,334.2179978455009,,,,,1,1,2024-10-14_17h50.20.807,visual,2024.1.5,120.5129634345996,
1_con_singledot,0.25,1,25,10,460,0,,,,1_con_singledot_image_29.png,334.3236865785031,334.5765520535118,,,,,1,1,2024-10-14_17h50.20.807,visual,2024.1.5,120.5129634345996,
5_con_singledot,0.25,5,25,11,461,4,,,,5_con_singledot_image_32.png,334.68376307851867,334.9345454284979,,,,,1,1,2024-10-14_17h50.20.807,visual,2024.1.5,120.5129634345996,
1_con_totaldot,0.25,1,25,12,462,6,,,,1_con_totaldot_image_21.png,335.0403107875201,335.2930599285231,,,,,1,1,2024-10-14_17h50.20.807,visual,2024.1.5,120.5129634345996,
6_con_circum,0.25,6,25,13,463,17,,,,6_con_circum_image_21.png,335.4006387035071,335.6519589285075,,,,,1,1,2024-10-14_17h50.20.807,visual,2024.1.5,120.5129634345996,
4_con_totaldot,0.25,4,25,14,464,9,,,,4_con_totaldot_image_47.png,335.75967612049425,336.01026292850145,,,,,1,1,2024-10-14_17h50.20.807,visual,2024.1.5,120.5129634345996,
2_con_singledot,0.25,2,25,15,465,1,,,,2_con_singledot_image_3.png,336.1174479955109,336.3688669705065,,,,,1,1,2024-10-14_17h50.20.807,visual,2024.1.5,120.5129634345996,
3_con_totaldot,0.25,3,25,16,466,8,,,,3_con_totaldot_image_46.png,336.4766089955112,336.7353357625019,,,,,1,1,2024-10-14_17h50.20.807,visual,2024.1.5,120.5129634345996,
6_con_singledot,0.25,6,25,17,467,5,,,,6_con_singledot_image_42.png,336.84318962051765,337.1015962205187,4.wav,337.20228375002625,5.mp4,337.20228375002625,1,1,2024-10-14_17h50.20.807,visual,2024.1.5,120.5129634345996,
1_con_circum,0.25,1,26,0,468,12,,,,1_con_circum_image_60.png,339.0561357659637,339.3082408455142,,,,,1,1,2024-10-14_17h50.20.807,visual,2024.1.5,120.5129634345996,
4_con_totaldot,0.25,4,26,1,469,9,,,,4_con_totaldot_image_51.png,339.4173463705112,339.66847572051336,,,,,1,1,2024-10-14_17h50.20.807,visual,2024.1.5,120.5129634345996,
2_con_totaldot,0.25,2,26,2,470,7,,,,2_con_totaldot_image_12.png,339.7742731624923,340.02503976249716,,,,,1,1,2024-10-14_17h50.20.807,visual,2024.1.5,120.5129634345996,
6_con_circum,0.25,6,26,3,471,17,,,,6_con_circum_image_66.png,340.1339606205176,340.3848534284974,,,,,1,1,2024-10-14_17h50.20.807,visual,2024.1.5,120.5129634345996,
4_con_singledot,0.25,4,26,4,472,3,,,,4_con_singledot_image_41.png,340.49067045351256,340.7406415955105,,,,,1,1,2024-10-14_17h50.20.807,visual,2024.1.5,120.5129634345996,
2_con_singledot,0.25,2,26,5,473,1,,,,2_con_singledot_image_42.png,340.8508285375021,341.10212938750044,,,,,1,1,2024-10-14_17h50.20.807,visual,2024.1.5,120.5129634345996,
6_con_singledot,0.25,6,26,6,474,5,,,,6_con_singledot_image_20.png,341.20934541251626,341.46890434550585,,,,,1,1,2024-10-14_17h50.20.807,visual,2024.1.5,120.5129634345996,
5_con_circum,0.25,5,26,7,475,16,,,,5_con_circum_image_59.png,341.5765772455081,341.8266123874986,,,,,1,1,2024-10-14_17h50.20.807,visual,2024.1.5,120.5129634345996,
5_con_singledot,0.25,5,26,8,476,4,,,,5_con_singledot_image_4.png,341.93609799551194,342.1855566785147,,,,,1,1,2024-10-14_17h50.20.807,visual,2024.1.5,120.5129634345996,
2_con_circum,0.25,2,26,9,477,13,,,,2_con_circum_image_6.png,342.2928478705173,342.55134888750615,,,,,1,1,2024-10-14_17h50.20.807,visual,2024.1.5,120.5129634345996,
6_con_totaldot,0.25,6,26,10,478,11,,,,6_con_totaldot_image_26.png,342.6578872875136,342.9105428875249,,,,,1,1,2024-10-14_17h50.20.807,visual,2024.1.5,120.5129634345996,
3_con_circum,0.25,3,26,11,479,14,,,,3_con_circum_image_61.png,343.0170514535159,343.26838355351936,,,,,1,1,2024-10-14_17h50.20.807,visual,2024.1.5,120.5129634345996,
4_con_circum,0.25,4,26,12,480,15,,,,4_con_circum_image_48.png,343.37426820349646,343.62757930352234,,,,,1,1,2024-10-14_17h50.20.807,visual,2024.1.5,120.5129634345996,
1_con_singledot,0.25,1,26,13,481,0,,,,1_con_singledot_image_51.png,343.7350319955032,343.98505797051473,,,,,1,1,2024-10-14_17h50.20.807,visual,2024.1.5,120.5129634345996,
1_con_totaldot,0.25,1,26,14,482,6,,,,1_con_totaldot_image_34.png,344.0926347455126,344.34352205350876,,,,,1,1,2024-10-14_17h50.20.807,visual,2024.1.5,120.5129634345996,
3_con_singledot,0.25,3,26,15,483,2,,,,3_con_singledot_image_1.png,344.450993703492,344.7018507205124,,,,,1,1,2024-10-14_17h50.20.807,visual,2024.1.5,120.5129634345996,
3_con_totaldot,0.25,3,26,16,484,8,,,,3_con_totaldot_image_30.png,344.80940366249996,345.0603985535039,,,,,1,1,2024-10-14_17h50.20.807,visual,2024.1.5,120.5129634345996,
5_con_totaldot,0.25,5,26,17,485,10,,,,5_con_totaldot_image_29.png,345.16749612051643,345.4181636784982,2.wav,345.51697708302527,3.mp4,345.51697708302527,1,1,2024-10-14_17h50.20.807,visual,2024.1.5,120.5129634345996,
6_con_totaldot,0.25,6,27,0,486,11,,,,6_con_totaldot_image_21.png,347.35674376598325,347.6085188455239,,,,,1,1,2024-10-14_17h50.20.807,visual,2024.1.5,120.5129634345996,
4_con_circum,0.25,4,27,1,487,15,,,,4_con_circum_image_17.png,347.71705728750675,347.9689340535027,,,,,1,1,2024-10-14_17h50.20.807,visual,2024.1.5,120.5129634345996,
6_con_singledot,0.25,6,27,2,488,5,,,,6_con_singledot_image_68.png,348.0764981625136,348.33543447050613,,,,,1,1,2024-10-14_17h50.20.807,visual,2024.1.5,120.5129634345996,
2_con_singledot,0.25,2,27,3,489,1,,,,2_con_singledot_image_49.png,348.4429987034993,348.702256137511,,,,,1,1,2024-10-14_17h50.20.807,visual,2024.1.5,120.5129634345996,
2_con_circum,0.25,2,27,4,490,13,,,,2_con_circum_image_52.png,348.8102853284974,349.0685907205101,,,,,1,1,2024-10-14_17h50.20.807,visual,2024.1.5,120.5129634345996,
1_con_circum,0.25,1,27,5,491,12,,,,1_con_circum_image_21.png,349.17653382850693,349.4342510534974,,,,,1,1,2024-10-14_17h50.20.807,visual,2024.1.5,120.5129634345996,
6_con_circum,0.25,6,27,6,492,17,,,,6_con_circum_image_34.png,349.54005262050777,349.7917893035104,,,,,1,1,2024-10-14_17h50.20.807,visual,2024.1.5,120.5129634345996,
1_con_singledot,0.25,1,27,7,493,0,,,,1_con_singledot_image_70.png,349.90085199549793,350.1520166375034,,,,,1,1,2024-10-14_17h50.20.807,visual,2024.1.5,120.5129634345996,
4_con_totaldot,0.25,4,27,8,494,9,,,,4_con_totaldot_image_35.png,350.25932541249784,350.50855234551125,,,,,1,1,2024-10-14_17h50.20.807,visual,2024.1.5,120.5129634345996,
3_con_totaldot,0.25,3,27,9,495,8,,,,3_con_totaldot_image_16.png,350.61740370349725,350.8694527625106,,,,,1,1,2024-10-14_17h50.20.807,visual,2024.1.5,120.5129634345996,
3_con_singledot,0.25,3,27,10,496,2,,,,3_con_singledot_image_57.png,350.97734266250626,351.2351701375213,,,,,1,1,2024-10-14_17h50.20.807,visual,2024.1.5,120.5129634345996,
5_con_circum,0.25,5,27,11,497,16,,,,5_con_circum_image_44.png,351.34280074549605,351.59349926250286,,,,,1,1,2024-10-14_17h50.20.807,visual,2024.1.5,120.5129634345996,
3_con_circum,0.25,3,27,12,498,14,,,,3_con_circum_image_50.png,351.70085920351556,351.9521884705231,,,,,1,1,2024-10-14_17h50.20.807,visual,2024.1.5,120.5129634345996,
4_con_singledot,0.25,4,27,13,499,3,,,,4_con_singledot_image_19.png,352.05965232850866,352.3188992624986,,,,,1,1,2024-10-14_17h50.20.807,visual,2024.1.5,120.5129634345996,
5_con_totaldot,0.25,5,27,14,500,10,,,,5_con_totaldot_image_15.png,352.42463995349243,352.677064595517,,,,,1,1,2024-10-14_17h50.20.807,visual,2024.1.5,120.5129634345996,
5_con_singledot,0.25,5,27,15,501,4,,,,5_con_singledot_image_50.png,352.78453057851874,353.03577034551415,,,,,1,1,2024-10-14_17h50.20.807,visual,2024.1.5,120.5129634345996,
2_con_totaldot,0.25,2,27,16,502,7,,,,2_con_totaldot_image_13.png,353.14335274549666,353.4022002625046,,,,,1,1,2024-10-14_17h50.20.807,visual,2024.1.5,120.5129634345996,
1_con_totaldot,0.25,1,27,17,503,6,,,,1_con_totaldot_image_47.png,353.51000624550505,353.759590303502,4.wav,353.8606001250155,3.mp4,353.8606001250155,1,1,2024-10-14_17h50.20.807,visual,2024.1.5,120.5129634345996,
3_con_totaldot,0.25,3,28,0,504,8,,,,3_con_totaldot_image_7.png,355.69513372496584,355.9518602625234,,,,,1,1,2024-10-14_17h50.20.807,visual,2024.1.5,120.5129634345996,
6_con_singledot,0.25,6,28,1,505,5,,,,6_con_singledot_image_33.png,356.057847787498,356.3087622625229,,,,,1,1,2024-10-14_17h50.20.807,visual,2024.1.5,120.5129634345996,
5_con_singledot,0.25,5,28,2,506,4,,,,5_con_singledot_image_19.png,356.4176582874963,356.66883005350826,,,,,1,1,2024-10-14_17h50.20.807,visual,2024.1.5,120.5129634345996,
3_con_singledot,0.25,3,28,3,507,2,,,,3_con_singledot_image_63.png,356.7756663705106,357.02752397049915,,,,,1,1,2024-10-14_17h50.20.807,visual,2024.1.5,120.5129634345996,
2_con_totaldot,0.25,2,28,4,508,7,,,,2_con_totaldot_image_38.png,357.13534191249636,357.38495872050987,,,,,1,1,2024-10-14_17h50.20.807,visual,2024.1.5,120.5129634345996,
5_con_totaldot,0.25,5,28,5,509,10,,,,5_con_totaldot_image_21.png,357.4910642455099,357.74184517851097,,,,,1,1,2024-10-14_17h50.20.807,visual,2024.1.5,120.5129634345996,
4_con_circum,0.25,4,28,6,510,15,,,,4_con_circum_image_63.png,357.8512874125037,358.1019082625047,,,,,1,1,2024-10-14_17h50.20.807,visual,2024.1.5,120.5129634345996,
6_con_circum,0.25,6,28,7,511,17,,,,6_con_circum_image_28.png,358.2094141625159,358.458658595517,,,,,1,1,2024-10-14_17h50.20.807,visual,2024.1.5,120.5129634345996,
1_con_circum,0.25,1,28,8,512,12,,,,1_con_circum_image_48.png,358.5673396205122,358.818859637517,,,,,1,1,2024-10-14_17h50.20.807,visual,2024.1.5,120.5129634345996,
5_con_circum,0.25,5,28,9,513,16,,,,5_con_circum_image_64.png,358.9264989535033,359.18528401249785,,,,,1,1,2024-10-14_17h50.20.807,visual,2024.1.5,120.5129634345996,
6_con_totaldot,0.25,6,28,10,514,11,,,,6_con_totaldot_image_9.png,359.2911900374922,359.5418868455221,,,,,1,1,2024-10-14_17h50.20.807,visual,2024.1.5,120.5129634345996,
2_con_singledot,0.25,2,28,11,515,1,,,,2_con_singledot_image_15.png,359.6512765785039,359.90203092850277,,,,,1,1,2024-10-14_17h50.20.807,visual,2024.1.5,120.5129634345996,
4_con_singledot,0.25,4,28,12,516,3,,,,4_con_singledot_image_65.png,360.00968845350434,360.2590302625089,,,,,1,1,2024-10-14_17h50.20.807,visual,2024.1.5,120.5129634345996,
3_con_circum,0.25,3,28,13,517,14,,,,3_con_circum_image_34.png,360.36688687051645,360.6183487205184,,,,,1,1,2024-10-14_17h50.20.807,visual,2024.1.5,120.5129634345996,
1_con_singledot,0.25,1,28,14,518,0,,,,1_con_singledot_image_15.png,360.72421053749275,360.9774728875258,,,,,1,1,2024-10-14_17h50.20.807,visual,2024.1.5,120.5129634345996,
4_con_totaldot,0.25,4,28,15,519,9,,,,4_con_totaldot_image_30.png,361.0848277874931,361.3355939704983,,,,,1,1,2024-10-14_17h50.20.807,visual,2024.1.5,120.5129634345996,
2_con_circum,0.25,2,28,16,520,13,,,,2_con_circum_image_12.png,361.4430194955086,361.70188080351215,,,,,1,1,2024-10-14_17h50.20.807,visual,2024.1.5,120.5129634345996,
1_con_totaldot,0.25,1,28,17,521,6,,,,1_con_totaldot_image_65.png,361.810462995508,362.0693479285168,1.wav,362.1699979999976,12.mp4,362.1699979999976,1,1,2024-10-14_17h50.20.807,visual,2024.1.5,120.5129634345996,
3_con_circum,0.25,3,29,0,522,14,,,,3_con_circum_image_11.png,364.024521515955,364.2757523875101,,,,,1,1,2024-10-14_17h50.20.807,visual,2024.1.5,120.5129634345996,
2_con_circum,0.25,2,29,1,523,13,,,,2_con_circum_image_40.png,364.3844411625061,364.63534347050006,,,,,1,1,2024-10-14_17h50.20.807,visual,2024.1.5,120.5129634345996,
1_con_totaldot,0.25,1,29,2,524,6,,,,1_con_totaldot_image_14.png,364.7429414125101,365.0020363035204,,,,,1,1,2024-10-14_17h50.20.807,visual,2024.1.5,120.5129634345996,
2_con_singledot,0.25,2,29,3,525,1,,,,2_con_singledot_image_26.png,365.10989007850293,365.3592184284993,,,,,1,1,2024-10-14_17h50.20.807,visual,2024.1.5,120.5129634345996,
1_con_singledot,0.25,1,29,4,526,0,,,,1_con_singledot_image_18.png,365.467442703509,365.71866280350366,,,,,1,1,2024-10-14_17h50.20.807,visual,2024.1.5,120.5129634345996,
4_con_circum,0.25,4,29,5,527,15,,,,4_con_circum_image_62.png,365.824501078506,366.07460626250247,,,,,1,1,2024-10-14_17h50.20.807,visual,2024.1.5,120.5129634345996,
1_con_circum,0.25,1,29,6,528,12,,,,1_con_circum_image_29.png,366.18484549549174,366.4357090125035,,,,,1,1,2024-10-14_17h50.20.807,visual,2024.1.5,120.5129634345996,
5_con_totaldot,0.25,5,29,7,529,10,,,,5_con_totaldot_image_44.png,366.5434650785057,366.80246301252043,,,,,1,1,2024-10-14_17h50.20.807,visual,2024.1.5,120.5129634345996,
5_con_circum,0.25,5,29,8,530,16,,,,5_con_circum_image_32.png,366.909953953512,367.16065842850946,,,,,1,1,2024-10-14_17h50.20.807,visual,2024.1.5,120.5129634345996,
3_con_singledot,0.25,3,29,9,531,2,,,,3_con_singledot_image_39.png,367.26857499550096,367.51909038751035,,,,,1,1,2024-10-14_17h50.20.807,visual,2024.1.5,120.5129634345996,
4_con_totaldot,0.25,4,29,10,532,9,,,,4_con_totaldot_image_13.png,367.62688124551204,367.8854144705168,,,,,1,1,2024-10-14_17h50.20.807,visual,2024.1.5,120.5129634345996,
2_con_totaldot,0.25,2,29,11,533,7,,,,2_con_totaldot_image_6.png,367.9914637874928,368.2417001785128,,,,,1,1,2024-10-14_17h50.20.807,visual,2024.1.5,120.5129634345996,
6_con_totaldot,0.25,6,29,12,534,11,,,,6_con_totaldot_image_41.png,368.35136778750456,368.6023885125236,,,,,1,1,2024-10-14_17h50.20.807,visual,2024.1.5,120.5129634345996,
4_con_singledot,0.25,4,29,13,535,3,,,,4_con_singledot_image_42.png,368.7100783285161,368.9610225955024,,,,,1,1,2024-10-14_17h50.20.807,visual,2024.1.5,120.5129634345996,
3_con_totaldot,0.25,3,29,14,536,8,,,,3_con_totaldot_image_54.png,369.06759728749165,369.31896159551104,,,,,1,1,2024-10-14_17h50.20.807,visual,2024.1.5,120.5129634345996,
6_con_circum,0.25,6,29,15,537,17,,,,6_con_circum_image_67.png,369.42640907851745,369.6853889285179,,,,,1,1,2024-10-14_17h50.20.807,visual,2024.1.5,120.5129634345996,
6_con_singledot,0.25,6,29,16,538,5,,,,6_con_singledot_image_54.png,369.7933434955077,370.042476053501,,,,,1,1,2024-10-14_17h50.20.807,visual,2024.1.5,120.5129634345996,
5_con_singledot,0.25,5,29,17,539,4,,,,5_con_singledot_image_34.png,370.15108620350946,370.4022205535206,1.wav,370.502624958026,3.mp4,370.502624958026,1,1,2024-10-14_17h50.20.807,visual,2024.1.5,120.5129634345996,
3_con_singledot,0.25,3,30,0,540,2,,,,3_con_singledot_image_48.png,372.3436608079821,372.602007678512,,,,,1,1,2024-10-14_17h50.20.807,visual,2024.1.5,120.5129634345996,
3_con_totaldot,0.25,3,30,1,541,8,,,,3_con_totaldot_image_33.png,372.70953212051535,372.9592160535161,,,,,1,1,2024-10-14_17h50.20.807,visual,2024.1.5,120.5129634345996,
6_con_circum,0.25,6,30,2,542,17,,,,6_con_circum_image_1.png,373.0670288705034,373.3189525535039,,,,,1,1,2024-10-14_17h50.20.807,visual,2024.1.5,120.5129634345996,
2_con_singledot,0.25,2,30,3,543,1,,,,2_con_singledot_image_60.png,373.4263131205109,373.67752138749927,,,,,1,1,2024-10-14_17h50.20.807,visual,2024.1.5,120.5129634345996,
6_con_singledot,0.25,6,30,4,544,5,,,,6_con_singledot_image_60.png,373.7841384124942,374.03602838752556,,,,,1,1,2024-10-14_17h50.20.807,visual,2024.1.5,120.5129634345996,
1_con_totaldot,0.25,1,30,5,545,6,,,,1_con_totaldot_image_27.png,374.1438567875186,374.40132497050797,,,,,1,1,2024-10-14_17h50.20.807,visual,2024.1.5,120.5129634345996,
2_con_circum,0.25,2,30,6,546,13,,,,2_con_circum_image_22.png,374.5072087035107,374.75803863752515,,,,,1,1,2024-10-14_17h50.20.807,visual,2024.1.5,120.5129634345996,
6_con_totaldot,0.25,6,30,7,547,11,,,,6_con_totaldot_image_7.png,374.8678864955029,375.11892959551767,,,,,1,1,2024-10-14_17h50.20.807,visual,2024.1.5,120.5129634345996,
1_con_circum,0.25,1,30,8,548,12,,,,1_con_circum_image_50.png,375.2266017455142,375.48570909552507,,,,,1,1,2024-10-14_17h50.20.807,visual,2024.1.5,120.5129634345996,
5_con_totaldot,0.25,5,30,9,549,10,,,,5_con_totaldot_image_42.png,375.5941494125174,375.85205322050604,,,,,1,1,2024-10-14_17h50.20.807,visual,2024.1.5,120.5129634345996,
5_con_circum,0.25,5,30,10,550,16,,,,5_con_circum_image_4.png,375.958989787515,376.2089560535154,,,,,1,1,2024-10-14_17h50.20.807,visual,2024.1.5,120.5129634345996,
3_con_circum,0.25,3,30,11,551,14,,,,3_con_circum_image_22.png,376.3180494535074,376.5688180955243,,,,,1,1,2024-10-14_17h50.20.807,visual,2024.1.5,120.5129634345996,
4_con_totaldot,0.25,4,30,12,552,9,,,,4_con_totaldot_image_59.png,376.67656941250897,376.92725526251013,,,,,1,1,2024-10-14_17h50.20.807,visual,2024.1.5,120.5129634345996,
1_con_singledot,0.25,1,30,13,553,0,,,,1_con_singledot_image_9.png,377.03448024551034,377.28513113750375,,,,,1,1,2024-10-14_17h50.20.807,visual,2024.1.5,120.5129634345996,
4_con_singledot,0.25,4,30,14,554,3,,,,4_con_singledot_image_33.png,377.3910569955071,377.6439318875258,,,,,1,1,2024-10-14_17h50.20.807,visual,2024.1.5,120.5129634345996,
2_con_totaldot,0.25,2,30,15,555,7,,,,2_con_totaldot_image_25.png,377.7510663705063,378.0025585955067,,,,,1,1,2024-10-14_17h50.20.807,visual,2024.1.5,120.5129634345996,
5_con_singledot,0.25,5,30,16,556,4,,,,5_con_singledot_image_23.png,378.1103163705149,378.3689763455244,,,,,1,1,2024-10-14_17h50.20.807,visual,2024.1.5,120.5129634345996,
4_con_circum,0.25,4,30,17,557,15,,,,4_con_circum_image_50.png,378.47695624550687,378.73620138751573,5.wav,378.83637295800145,15.mp4,378.83637295800145,1,1,2024-10-14_17h50.20.807,visual,2024.1.5,120.5129634345996,
1_con_circum,0.25,1,31,0,558,12,,,,1_con_circum_image_47.png,380.68269959996104,380.9352711785235,,,,,1,1,2024-10-14_17h50.20.807,visual,2024.1.5,120.5129634345996,
4_con_circum,0.25,4,31,1,559,15,,,,4_con_circum_image_26.png,381.0414096205088,381.2940787625033,,,,,1,1,2024-10-14_17h50.20.807,visual,2024.1.5,120.5129634345996,
5_con_totaldot,0.25,5,31,2,560,10,,,,5_con_totaldot_image_3.png,381.4013595784956,381.65264801250885,,,,,1,1,2024-10-14_17h50.20.807,visual,2024.1.5,120.5129634345996,
2_con_circum,0.25,2,31,3,561,13,,,,2_con_circum_image_28.png,381.7600771625177,382.0186440535239,,,,,1,1,2024-10-14_17h50.20.807,visual,2024.1.5,120.5129634345996,
5_con_singledot,0.25,5,31,4,562,4,,,,5_con_singledot_image_67.png,382.1243821625132,382.37578334552234,,,,,1,1,2024-10-14_17h50.20.807,visual,2024.1.5,120.5129634345996,
6_con_totaldot,0.25,6,31,5,563,11,,,,6_con_totaldot_image_39.png,382.48454257850534,382.73605172051464,,,,,1,1,2024-10-14_17h50.20.807,visual,2024.1.5,120.5129634345996,
3_con_circum,0.25,3,31,6,564,14,,,,3_con_circum_image_65.png,382.8438900374924,383.102389762504,,,,,1,1,2024-10-14_17h50.20.807,visual,2024.1.5,120.5129634345996,
4_con_singledot,0.25,4,31,7,565,3,,,,4_con_singledot_image_39.png,383.20830162051715,383.4609402625123,,,,,1,1,2024-10-14_17h50.20.807,visual,2024.1.5,120.5129634345996,
2_con_totaldot,0.25,2,31,8,566,7,,,,2_con_totaldot_image_69.png,383.5681282875186,383.8190460955142,,,,,1,1,2024-10-14_17h50.20.807,visual,2024.1.5,120.5129634345996,
1_con_totaldot,0.25,1,31,9,567,6,,,,1_con_totaldot_image_35.png,383.9268585785059,384.185630803497,,,,,1,1,2024-10-14_17h50.20.807,visual,2024.1.5,120.5129634345996,
3_con_singledot,0.25,3,31,10,568,2,,,,3_con_singledot_image_47.png,384.2934155785071,384.5524230535142,,,,,1,1,2024-10-14_17h50.20.807,visual,2024.1.5,120.5129634345996,
4_con_totaldot,0.25,4,31,11,569,9,,,,4_con_totaldot_image_65.png,384.6581493285077,384.91083826250394,,,,,1,1,2024-10-14_17h50.20.807,visual,2024.1.5,120.5129634345996,
6_con_circum,0.25,6,31,12,570,17,,,,6_con_circum_image_9.png,385.01803303750347,385.26933567852245,,,,,1,1,2024-10-14_17h50.20.807,visual,2024.1.5,120.5129634345996,
1_con_singledot,0.25,1,31,13,571,0,,,,1_con_singledot_image_5.png,385.37736324551514,385.63564713750964,,,,,1,1,2024-10-14_17h50.20.807,visual,2024.1.5,120.5129634345996,
3_con_totaldot,0.25,3,31,14,572,8,,,,3_con_totaldot_image_5.png,385.7413672455179,385.9916268035071,,,,,1,1,2024-10-14_17h50.20.807,visual,2024.1.5,120.5129634345996,
5_con_circum,0.25,5,31,15,573,16,,,,5_con_circum_image_56.png,386.1012476624921,386.35230376251855,,,,,1,1,2024-10-14_17h50.20.807,visual,2024.1.5,120.5129634345996,
6_con_singledot,0.25,6,31,16,574,5,,,,6_con_singledot_image_50.png,386.45824916249256,386.7091410125198,,,,,1,1,2024-10-14_17h50.20.807,visual,2024.1.5,120.5129634345996,
2_con_singledot,0.25,2,31,17,575,1,,,,2_con_singledot_image_55.png,386.8183792455122,387.06872659549697,2.wav,387.16742037501535,13.mp4,387.16742037501535,1,1,2024-10-14_17h50.20.807,visual,2024.1.5,120.5129634345996,
4_con_totaldot,0.25,4,32,0,576,9,,,,4_con_totaldot_image_57.png,389.00213768297107,389.2526812205091,,,,,1,1,2024-10-14_17h50.20.807,visual,2024.1.5,120.5129634345996,
6_con_circum,0.25,6,32,1,577,17,,,,6_con_circum_image_24.png,389.3588510785077,389.61915134551816,,,,,1,1,2024-10-14_17h50.20.807,visual,2024.1.5,120.5129634345996,
4_con_circum,0.25,4,32,2,578,15,,,,4_con_circum_image_39.png,389.725375870493,389.97568855350835,,,,,1,1,2024-10-14_17h50.20.807,visual,2024.1.5,120.5129634345996,
2_con_totaldot,0.25,2,32,3,579,7,,,,2_con_totaldot_image_18.png,390.0844162035093,390.3357903455093,,,,,1,1,2024-10-14_17h50.20.807,visual,2024.1.5,120.5129634345996,
3_con_singledot,0.25,3,32,4,580,2,,,,3_con_singledot_image_35.png,390.4434201205033,390.69257484551633,,,,,1,1,2024-10-14_17h50.20.807,visual,2024.1.5,120.5129634345996,
5_con_totaldot,0.25,5,32,5,581,10,,,,5_con_totaldot_image_28.png,390.8012976625061,391.0527482625097,,,,,1,1,2024-10-14_17h50.20.807,visual,2024.1.5,120.5129634345996,
3_con_totaldot,0.25,3,32,6,582,8,,,,3_con_totaldot_image_65.png,391.16009145351126,391.41113451251874,,,,,1,1,2024-10-14_17h50.20.807,visual,2024.1.5,120.5129634345996,
6_con_totaldot,0.25,6,32,7,583,11,,,,6_con_totaldot_image_47.png,391.5190298285044,391.7691023455176,,,,,1,1,2024-10-14_17h50.20.807,visual,2024.1.5,120.5129634345996,
2_con_circum,0.25,2,32,8,584,13,,,,2_con_circum_image_33.png,391.8769318705192,392.13577830352585,,,,,1,1,2024-10-14_17h50.20.807,visual,2024.1.5,120.5129634345996,
4_con_singledot,0.25,4,32,9,585,3,,,,4_con_singledot_image_32.png,392.2416787875001,392.49443497052414,,,,,1,1,2024-10-14_17h50.20.807,visual,2024.1.5,120.5129634345996,
