condition,duration,numerosity,trials.thisRepN,trials.thisTrialN,trials.thisN,trials.thisIndex,thisRow.t,notes,text_welcome.started,image_name,image_number,image.started,image.stopped,audio_name,audio_started,movie_name,movie_started,participant,session,date|hid,expName|hid,psychopyVersion|hid,frameRate,
4_con_circum,0.25,4,0,0,0,15,,,18.047631290974095,4_con_circum_image_24.png,24,20.193727508292067,20.445274466404225,,,,,1,1,2024-10-28_22h34.19.371,visual,2024.1.5,119.89634958421668,
1_con_totaldot,0.25,1,0,1,1,6,,,,1_con_totaldot_image_19.png,19,20.636643484199883,20.887772091303486,,,,,1,1,2024-10-28_22h34.19.371,visual,2024.1.5,119.89634958421668,
4_con_totaldot,0.25,4,0,2,2,9,,,,4_con_totaldot_image_63.png,63,21.069301059795542,21.320280924311373,,,,,1,1,2024-10-28_22h34.19.371,visual,2024.1.5,119.89634958421668,
3_con_singledot,0.25,3,0,3,3,2,,,,3_con_singledot_image_44.png,44,21.501811600732616,21.75415459134383,,,,,1,1,2024-10-28_22h34.19.371,visual,2024.1.5,119.89634958421668,
1_con_singledot,0.25,1,0,4,4,0,,,,1_con_singledot_image_64.png,64,21.93566197573673,22.187008758296724,,,,,1,1,2024-10-28_22h34.19.371,visual,2024.1.5,119.89634958421668,
2_con_singledot,0.25,2,0,5,5,1,,,,2_con_singledot_image_53.png,53,22.377097693120593,22.62826225835597,,,,,1,1,2024-10-28_22h34.19.371,visual,2024.1.5,119.89634958421668,
3_con_totaldot,0.25,3,0,6,6,8,,,,3_con_totaldot_image_64.png,64,22.810923600778914,23.061650758364703,,,,,1,1,2024-10-28_22h34.19.371,visual,2024.1.5,119.89634958421668,
5_con_singledot,0.25,5,0,7,7,4,,,,5_con_singledot_image_26.png,26,23.244950225786305,23.495001466351095,,,,,1,1,2024-10-28_22h34.19.371,visual,2024.1.5,119.89634958421668,
4_con_singledot,0.25,4,0,8,8,3,,,,4_con_singledot_image_26.png,26,23.67753968478646,23.928178799326997,,,,,1,1,2024-10-28_22h34.19.371,visual,2024.1.5,119.89634958421668,
2_con_circum,0.25,2,0,9,9,13,,,,2_con_circum_image_51.png,51,24.11209435071796,24.36155384137528,,,,,1,1,2024-10-28_22h34.19.371,visual,2024.1.5,119.89634958421668,
6_con_circum,0.25,6,0,10,10,17,,,,6_con_circum_image_6.png,6,24.553005609160753,24.80448596632341,,,,,1,1,2024-10-28_22h34.19.371,visual,2024.1.5,119.89634958421668,
2_con_totaldot,0.25,2,0,11,11,7,,,,2_con_totaldot_image_40.png,40,24.98612593472935,25.236988258303608,,,,,1,1,2024-10-28_22h34.19.371,visual,2024.1.5,119.89634958421668,
3_con_circum,0.25,3,0,12,12,14,,,,3_con_circum_image_14.png,14,25.418485017702913,25.67113025834551,,,,,1,1,2024-10-28_22h34.19.371,visual,2024.1.5,119.89634958421668,
5_con_totaldot,0.25,5,0,13,13,10,,,,5_con_totaldot_image_70.png,70,25.852647809754124,26.105401091382372,,,,,1,1,2024-10-28_22h34.19.371,visual,2024.1.5,119.89634958421668,
6_con_singledot,0.25,6,0,14,14,5,,,,6_con_singledot_image_35.png,35,26.296120526117736,26.547130341397132,,,,,1,1,2024-10-28_22h34.19.371,visual,2024.1.5,119.89634958421668,
5_con_circum,0.25,5,0,15,15,16,,,,5_con_circum_image_56.png,56,26.72833643478807,26.97838254935341,,,,,1,1,2024-10-28_22h34.19.371,visual,2024.1.5,119.89634958421668,
6_con_totaldot,0.25,6,0,16,16,11,,,,6_con_totaldot_image_70.png,70,27.160980309802106,27.411250674386974,,,,,1,1,2024-10-28_22h34.19.371,visual,2024.1.5,119.89634958421668,
1_con_circum,0.25,1,0,17,17,12,,,,1_con_circum_image_27.png,27,27.595532767800613,27.84457167434739,3.wav,27.945695207919925,2.mp4,27.945695207919925,1,1,2024-10-28_22h34.19.371,visual,2024.1.5,119.89634958421668,
3_con_totaldot,0.25,3,1,0,18,8,,,,3_con_totaldot_image_39.png,39,29.885649481706785,30.137766966351773,,,,,1,1,2024-10-28_22h34.19.371,visual,2024.1.5,119.89634958421668,
6_con_singledot,0.25,6,1,1,19,5,,,,6_con_singledot_image_44.png,44,30.32794160916237,30.578290549328084,,,,,1,1,2024-10-28_22h34.19.371,visual,2024.1.5,119.89634958421668,
5_con_totaldot,0.25,5,1,2,20,10,,,,5_con_totaldot_image_57.png,57,30.76134605971165,31.011327591363806,,,,,1,1,2024-10-28_22h34.19.371,visual,2024.1.5,119.89634958421668,
2_con_singledot,0.25,2,1,3,21,1,,,,2_con_singledot_image_57.png,57,31.195120600727385,31.44608950834954,,,,,1,1,2024-10-28_22h34.19.371,visual,2024.1.5,119.89634958421668,
1_con_singledot,0.25,1,1,4,22,0,,,,1_con_singledot_image_44.png,44,31.667264968319795,31.916755133296828,,,,,1,1,2024-10-28_22h34.19.371,visual,2024.1.5,119.89634958421668,
4_con_circum,0.25,4,1,5,23,15,,,,4_con_circum_image_59.png,59,32.1663823769195,32.4237059242907,,,,,1,1,2024-10-28_22h34.19.371,visual,2024.1.5,119.89634958421668,
2_con_totaldot,0.25,2,1,6,24,7,,,,2_con_totaldot_image_18.png,18,32.614398484199775,32.87103467433481,,,,,1,1,2024-10-28_22h34.19.371,visual,2024.1.5,119.89634958421668,
5_con_circum,0.25,5,1,7,25,16,,,,5_con_circum_image_48.png,48,33.05251339273528,33.303899758367336,,,,,1,1,2024-10-28_22h34.19.371,visual,2024.1.5,119.89634958421668,
5_con_singledot,0.25,5,1,8,26,4,,,,5_con_singledot_image_4.png,4,33.49371065114392,33.74860734130489,,,,,1,1,2024-10-28_22h34.19.371,visual,2024.1.5,119.89634958421668,
4_con_totaldot,0.25,4,1,9,27,9,,,,4_con_totaldot_image_19.png,19,33.93000468469691,34.18744059138699,,,,,1,1,2024-10-28_22h34.19.371,visual,2024.1.5,119.89634958421668,
1_con_totaldot,0.25,1,1,10,28,6,,,,1_con_totaldot_image_10.png,10,34.3773550261627,34.62963679932291,,,,,1,1,2024-10-28_22h34.19.371,visual,2024.1.5,119.89634958421668,
3_con_circum,0.25,3,1,11,29,14,,,,3_con_circum_image_41.png,41,34.81216880979483,35.062120466365016,,,,,1,1,2024-10-28_22h34.19.371,visual,2024.1.5,119.89634958421668,
3_con_singledot,0.25,3,1,12,30,2,,,,3_con_singledot_image_53.png,53,35.25282931813272,35.504333841369956,,,,,1,1,2024-10-28_22h34.19.371,visual,2024.1.5,119.89634958421668,
2_con_circum,0.25,2,1,13,31,13,,,,2_con_circum_image_61.png,61,35.68584672568832,35.937600883294365,,,,,1,1,2024-10-28_22h34.19.371,visual,2024.1.5,119.89634958421668,
4_con_singledot,0.25,4,1,14,32,3,,,,4_con_singledot_image_17.png,17,36.11916622575373,36.37113150836667,,,,,1,1,2024-10-28_22h34.19.371,visual,2024.1.5,119.89634958421668,
6_con_totaldot,0.25,6,1,15,33,11,,,,6_con_totaldot_image_12.png,12,36.552620142791426,36.80434209130472,,,,,1,1,2024-10-28_22h34.19.371,visual,2024.1.5,119.89634958421668,
6_con_circum,0.25,6,1,16,34,17,,,,6_con_circum_image_23.png,23,36.986387892719364,37.23769884136273,,,,,1,1,2024-10-28_22h34.19.371,visual,2024.1.5,119.89634958421668,
1_con_circum,0.25,1,1,17,35,12,,,,1_con_circum_image_26.png,26,37.419367809756665,37.671098591398916,2.wav,37.77058008289896,13.mp4,37.77058008289896,1,1,2024-10-28_22h34.19.371,visual,2024.1.5,119.89634958421668,
6_con_totaldot,0.25,6,2,0,36,11,,,,6_con_totaldot_image_15.png,15,39.68135056473548,39.937511133367664,,,,,1,1,2024-10-28_22h34.19.371,visual,2024.1.5,119.89634958421668,
4_con_totaldot,0.25,4,2,1,37,9,,,,4_con_totaldot_image_66.png,66,40.13623565954622,40.38749296636088,,,,,1,1,2024-10-28_22h34.19.371,visual,2024.1.5,119.89634958421668,
6_con_singledot,0.25,6,2,2,38,5,,,,6_con_singledot_image_32.png,32,40.56916914272588,40.84129496639362,,,,,1,1,2024-10-28_22h34.19.371,visual,2024.1.5,119.89634958421668,
6_con_circum,0.25,6,2,3,39,17,,,,6_con_circum_image_53.png,53,41.139331902109554,41.395280508312865,,,,,1,1,2024-10-28_22h34.19.371,visual,2024.1.5,119.89634958421668,
3_con_singledot,0.25,3,2,4,40,2,,,,3_con_singledot_image_35.png,35,41.57863385076635,41.82890684133163,,,,,1,1,2024-10-28_22h34.19.371,visual,2024.1.5,119.89634958421668,
5_con_totaldot,0.25,5,2,5,41,10,,,,5_con_totaldot_image_53.png,53,42.01966615110869,42.27112754933769,,,,,1,1,2024-10-28_22h34.19.371,visual,2024.1.5,119.89634958421668,
2_con_totaldot,0.25,2,2,6,42,7,,,,2_con_totaldot_image_9.png,9,42.46119431810221,42.712023258314005,,,,,1,1,2024-10-28_22h34.19.371,visual,2024.1.5,119.89634958421668,
3_con_circum,0.25,3,2,7,43,14,,,,3_con_circum_image_44.png,44,42.89463985068724,43.14480675837258,,,,,1,1,2024-10-28_22h34.19.371,visual,2024.1.5,119.89634958421668,
1_con_circum,0.25,1,2,8,44,12,,,,1_con_circum_image_7.png,7,43.336808526155075,43.58787579938071,,,,,1,1,2024-10-28_22h34.19.371,visual,2024.1.5,119.89634958421668,
1_con_singledot,0.25,1,2,9,45,0,,,,1_con_singledot_image_29.png,29,43.769464434799744,44.02158992433688,,,,,1,1,2024-10-28_22h34.19.371,visual,2024.1.5,119.89634958421668,
2_con_singledot,0.25,2,2,10,46,1,,,,2_con_singledot_image_16.png,16,44.20312085070182,44.45412325834623,,,,,1,1,2024-10-28_22h34.19.371,visual,2024.1.5,119.89634958421668,
1_con_totaldot,0.25,1,2,11,47,6,,,,1_con_totaldot_image_29.png,29,44.635842809779575,44.888216174312404,,,,,1,1,2024-10-28_22h34.19.371,visual,2024.1.5,119.89634958421668,
5_con_singledot,0.25,5,2,12,48,4,,,,5_con_singledot_image_30.png,30,45.06977222578135,45.32157809134806,,,,,1,1,2024-10-28_22h34.19.371,visual,2024.1.5,119.89634958421668,
3_con_totaldot,0.25,3,2,13,49,8,,,,3_con_totaldot_image_51.png,51,45.51146081819898,45.76145234132419,,,,,1,1,2024-10-28_22h34.19.371,visual,2024.1.5,119.89634958421668,
4_con_circum,0.25,4,2,14,50,15,,,,4_con_circum_image_1.png,1,45.9456173097482,46.1957633833983,,,,,1,1,2024-10-28_22h34.19.371,visual,2024.1.5,119.89634958421668,
2_con_circum,0.25,2,2,15,51,13,,,,2_con_circum_image_5.png,5,46.37888697579038,46.62826334136771,,,,,1,1,2024-10-28_22h34.19.371,visual,2024.1.5,119.89634958421668,
5_con_circum,0.25,5,2,16,52,16,,,,5_con_circum_image_55.png,55,46.81194964270108,47.06196400836343,,,,,1,1,2024-10-28_22h34.19.371,visual,2024.1.5,119.89634958421668,
4_con_singledot,0.25,4,2,17,53,3,,,,4_con_singledot_image_67.png,67,47.24562755969819,47.495271674345716,5.wav,47.596518124919385,4.mp4,47.596518124919385,1,1,2024-10-28_22h34.19.371,visual,2024.1.5,119.89634958421668,
3_con_singledot,0.25,3,3,0,54,2,,,,3_con_singledot_image_52.png,52,49.52608739879216,49.778504549397624,,,,,1,1,2024-10-28_22h34.19.371,visual,2024.1.5,119.89634958421668,
3_con_circum,0.25,3,3,1,55,14,,,,3_con_circum_image_68.png,68,49.96959981819382,50.220972883387006,,,,,1,1,2024-10-28_22h34.19.371,visual,2024.1.5,119.89634958421668,
5_con_circum,0.25,5,3,2,56,16,,,,5_con_circum_image_52.png,52,50.40253826775589,50.65421213336522,,,,,1,1,2024-10-28_22h34.19.371,visual,2024.1.5,119.89634958421668,
5_con_singledot,0.25,5,3,3,57,4,,,,5_con_singledot_image_36.png,36,50.83591872579419,51.08801846635761,,,,,1,1,2024-10-28_22h34.19.371,visual,2024.1.5,119.89634958421668,
4_con_circum,0.25,4,3,4,58,15,,,,4_con_circum_image_16.png,16,51.27788669309812,51.52869750837563,,,,,1,1,2024-10-28_22h34.19.371,visual,2024.1.5,119.89634958421668,
2_con_circum,0.25,2,3,5,59,13,,,,2_con_circum_image_65.png,65,51.711376309720805,51.96211650838377,,,,,1,1,2024-10-28_22h34.19.371,visual,2024.1.5,119.89634958421668,
6_con_singledot,0.25,6,3,6,60,5,,,,6_con_singledot_image_46.png,46,52.14461393477396,52.39547863333719,,,,,1,1,2024-10-28_22h34.19.371,visual,2024.1.5,119.89634958421668,
1_con_totaldot,0.25,1,3,7,61,6,,,,1_con_totaldot_image_66.png,66,52.578044267697265,52.82880367430626,,,,,1,1,2024-10-28_22h34.19.371,visual,2024.1.5,119.89634958421668,
1_con_circum,0.25,1,3,8,62,12,,,,1_con_circum_image_4.png,4,53.012433517701,53.26214154936606,,,,,1,1,2024-10-28_22h34.19.371,visual,2024.1.5,119.89634958421668,
6_con_totaldot,0.25,6,3,9,63,11,,,,6_con_totaldot_image_56.png,56,53.4447061007144,53.695492591348014,,,,,1,1,2024-10-28_22h34.19.371,visual,2024.1.5,119.89634958421668,
3_con_totaldot,0.25,3,3,10,64,8,,,,3_con_totaldot_image_70.png,70,53.878155850782065,54.12881713336101,,,,,1,1,2024-10-28_22h34.19.371,visual,2024.1.5,119.89634958421668,
4_con_singledot,0.25,4,3,11,65,3,,,,4_con_singledot_image_56.png,56,54.311871475749655,54.562709466309755,,,,,1,1,2024-10-28_22h34.19.371,visual,2024.1.5,119.89634958421668,
2_con_totaldot,0.25,2,3,12,66,7,,,,2_con_totaldot_image_68.png,68,54.74567714272999,54.99579600837315,,,,,1,1,2024-10-28_22h34.19.371,visual,2024.1.5,119.89634958421668,
5_con_totaldot,0.25,5,3,13,67,10,,,,5_con_totaldot_image_41.png,41,55.17867805969436,55.4290213413653,,,,,1,1,2024-10-28_22h34.19.371,visual,2024.1.5,119.89634958421668,
2_con_singledot,0.25,2,3,14,68,1,,,,2_con_singledot_image_65.png,65,55.6114438507706,55.86168625833234,,,,,1,1,2024-10-28_22h34.19.371,visual,2024.1.5,119.89634958421668,
6_con_circum,0.25,6,3,15,69,17,,,,6_con_circum_image_17.png,17,56.045180975785485,56.29575371636311,,,,,1,1,2024-10-28_22h34.19.371,visual,2024.1.5,119.89634958421668,
1_con_singledot,0.25,1,3,16,70,0,,,,1_con_singledot_image_28.png,28,56.47906751777046,56.7294105912908,,,,,1,1,2024-10-28_22h34.19.371,visual,2024.1.5,119.89634958421668,
4_con_totaldot,0.25,4,3,17,71,9,,,,4_con_totaldot_image_28.png,28,56.91232060079929,57.16209575835383,1.wav,57.26372299995273,1.mp4,57.26372299995273,1,1,2024-10-28_22h34.19.371,visual,2024.1.5,119.89634958421668,
2_con_totaldot,0.25,2,4,0,72,7,,,,2_con_totaldot_image_62.png,62,59.181643848354,59.43804354929598,,,,,1,1,2024-10-28_22h34.19.371,visual,2024.1.5,119.89634958421668,
4_con_singledot,0.25,4,4,1,73,3,,,,4_con_singledot_image_53.png,53,59.62820673416136,59.879317758360415,,,,,1,1,2024-10-28_22h34.19.371,visual,2024.1.5,119.89634958421668,
6_con_singledot,0.25,6,4,2,74,5,,,,6_con_singledot_image_48.png,48,60.06198822576553,60.311818008299454,,,,,1,1,2024-10-28_22h34.19.371,visual,2024.1.5,119.89634958421668,
1_con_circum,0.25,1,4,3,75,12,,,,1_con_circum_image_67.png,67,60.495502809737815,60.74567559139105,,,,,1,1,2024-10-28_22h34.19.371,visual,2024.1.5,119.89634958421668,
5_con_singledot,0.25,5,4,4,76,4,,,,5_con_singledot_image_5.png,5,60.928952559689066,61.17883204935352,,,,,1,1,2024-10-28_22h34.19.371,visual,2024.1.5,119.89634958421668,
3_con_singledot,0.25,3,4,5,77,2,,,,3_con_singledot_image_39.png,39,61.37028344309656,61.62168434133055,,,,,1,1,2024-10-28_22h34.19.371,visual,2024.1.5,119.89634958421668,
1_con_totaldot,0.25,1,4,6,78,6,,,,1_con_totaldot_image_48.png,48,61.803189225704415,62.055172883311755,,,,,1,1,2024-10-28_22h34.19.371,visual,2024.1.5,119.89634958421668,
4_con_circum,0.25,4,4,7,79,15,,,,4_con_circum_image_34.png,34,62.236790475761524,62.48833184129326,,,,,1,1,2024-10-28_22h34.19.371,visual,2024.1.5,119.89634958421668,
2_con_singledot,0.25,2,4,8,80,1,,,,2_con_singledot_image_7.png,7,62.66989597571083,62.92152721631574,,,,,1,1,2024-10-28_22h34.19.371,visual,2024.1.5,119.89634958421668,
3_con_totaldot,0.25,3,4,9,81,8,,,,3_con_totaldot_image_34.png,34,63.103169767744845,63.35520829934394,,,,,1,1,2024-10-28_22h34.19.371,visual,2024.1.5,119.89634958421668,
3_con_circum,0.25,3,4,10,82,14,,,,3_con_circum_image_58.png,58,63.53681055977941,63.78770871633897,,,,,1,1,2024-10-28_22h34.19.371,visual,2024.1.5,119.89634958421668,
5_con_totaldot,0.25,5,4,11,83,10,,,,5_con_totaldot_image_61.png,61,63.96921576778405,64.22183809137205,,,,,1,1,2024-10-28_22h34.19.371,visual,2024.1.5,119.89634958421668,
1_con_singledot,0.25,1,4,12,84,0,,,,1_con_singledot_image_37.png,37,64.40343364279252,64.65436559134396,,,,,1,1,2024-10-28_22h34.19.371,visual,2024.1.5,119.89634958421668,
6_con_circum,0.25,6,4,13,85,17,,,,6_con_circum_image_8.png,8,64.83590705969837,65.08765375834192,,,,,1,1,2024-10-28_22h34.19.371,visual,2024.1.5,119.89634958421668,
5_con_circum,0.25,5,4,14,86,16,,,,5_con_circum_image_28.png,28,65.26973580974155,65.52099759130506,,,,,1,1,2024-10-28_22h34.19.371,visual,2024.1.5,119.89634958421668,
4_con_totaldot,0.25,4,4,15,87,9,,,,4_con_totaldot_image_62.png,62,65.70267876770814,65.9550448832917,,,,,1,1,2024-10-28_22h34.19.371,visual,2024.1.5,119.89634958421668,
2_con_circum,0.25,2,4,16,88,13,,,,2_con_circum_image_69.png,69,66.13645564273466,66.38776063335827,,,,,1,1,2024-10-28_22h34.19.371,visual,2024.1.5,119.89634958421668,
6_con_totaldot,0.25,6,4,17,89,11,,,,6_con_totaldot_image_67.png,67,66.56939293476754,66.821073966322,2.wav,66.92054991598707,6.mp4,66.92054991598707,1,1,2024-10-28_22h34.19.371,visual,2024.1.5,119.89634958421668,
6_con_singledot,0.25,6,5,0,90,5,,,,6_con_singledot_image_36.png,36,68.84317455631681,69.09544917439344,,,,,1,1,2024-10-28_22h34.19.371,visual,2024.1.5,119.89634958421668,
4_con_singledot,0.25,4,5,1,91,3,,,,4_con_singledot_image_14.png,14,69.28706452619518,69.53781375834951,,,,,1,1,2024-10-28_22h34.19.371,visual,2024.1.5,119.89634958421668,
2_con_circum,0.25,2,5,2,92,13,,,,2_con_circum_image_15.png,15,69.71946160073858,69.97122084138682,,,,,1,1,2024-10-28_22h34.19.371,visual,2024.1.5,119.89634958421668,
4_con_circum,0.25,4,5,3,93,15,,,,4_con_circum_image_20.png,20,70.15397976778914,70.40504700829042,,,,,1,1,2024-10-28_22h34.19.371,visual,2024.1.5,119.89634958421668,
1_con_circum,0.25,1,5,4,94,12,,,,1_con_circum_image_3.png,3,70.59492502614158,70.84536921639229,,,,,1,1,2024-10-28_22h34.19.371,visual,2024.1.5,119.89634958421668,
3_con_totaldot,0.25,3,5,5,95,8,,,,3_con_totaldot_image_11.png,11,71.03621390109184,71.2877830493846,,,,,1,1,2024-10-28_22h34.19.371,visual,2024.1.5,119.89634958421668,
6_con_totaldot,0.25,6,5,6,96,11,,,,6_con_totaldot_image_40.png,40,71.46948210077827,71.72116713329451,,,,,1,1,2024-10-28_22h34.19.371,visual,2024.1.5,119.89634958421668,
5_con_singledot,0.25,5,5,7,97,4,,,,5_con_singledot_image_24.png,24,71.90278893474024,72.15494354929542,,,,,1,1,2024-10-28_22h34.19.371,visual,2024.1.5,119.89634958421668,
2_con_singledot,0.25,2,5,8,98,1,,,,2_con_singledot_image_23.png,23,72.33641593470239,72.58778184138937,,,,,1,1,2024-10-28_22h34.19.371,visual,2024.1.5,119.89634958421668,
1_con_singledot,0.25,1,5,9,99,0,,,,1_con_singledot_image_13.png,13,72.76935051775072,73.02115671638167,,,,,1,1,2024-10-28_22h34.19.371,visual,2024.1.5,119.89634958421668,
1_con_totaldot,0.25,1,5,10,100,6,,,,1_con_totaldot_image_63.png,63,73.2026965596946,73.45461134134094,,,,,1,1,2024-10-28_22h34.19.371,visual,2024.1.5,119.89634958421668,
3_con_singledot,0.25,3,5,11,101,2,,,,3_con_singledot_image_8.png,8,73.63616730968934,73.88787638336653,,,,,1,1,2024-10-28_22h34.19.371,visual,2024.1.5,119.89634958421668,
6_con_circum,0.25,6,5,12,102,17,,,,6_con_circum_image_35.png,35,74.06961668478326,74.32120788329048,,,,,1,1,2024-10-28_22h34.19.371,visual,2024.1.5,119.89634958421668,
5_con_circum,0.25,5,5,13,103,16,,,,5_con_circum_image_58.png,58,74.50279189271387,74.7545717162895,,,,,1,1,2024-10-28_22h34.19.371,visual,2024.1.5,119.89634958421668,
3_con_circum,0.25,3,5,14,104,14,,,,3_con_circum_image_62.png,62,74.93610843478237,75.19503238330363,,,,,1,1,2024-10-28_22h34.19.371,visual,2024.1.5,119.89634958421668,
5_con_totaldot,0.25,5,5,15,105,10,,,,5_con_totaldot_image_22.png,22,75.39020931810374,75.64546142435866,,,,,1,1,2024-10-28_22h34.19.371,visual,2024.1.5,119.89634958421668,
4_con_totaldot,0.25,4,5,16,106,9,,,,4_con_totaldot_image_47.png,47,75.83717673419743,76.08871650834335,,,,,1,1,2024-10-28_22h34.19.371,visual,2024.1.5,119.89634958421668,
2_con_totaldot,0.25,2,5,17,107,7,,,,2_con_totaldot_image_26.png,26,76.27051930977032,76.52202784129186,3.wav,76.62168237497099,7.mp4,76.62168237497099,1,1,2024-10-28_22h34.19.371,visual,2024.1.5,119.89634958421668,
3_con_totaldot,0.25,3,6,0,108,8,,,,3_con_totaldot_image_55.png,55,78.53435389038641,78.78841900835978,,,,,1,1,2024-10-28_22h34.19.371,visual,2024.1.5,119.89634958421668,
3_con_singledot,0.25,3,6,1,109,2,,,,3_con_singledot_image_23.png,23,78.9786062761792,79.22873259136686,,,,,1,1,2024-10-28_22h34.19.371,visual,2024.1.5,119.89634958421668,
2_con_circum,0.25,2,6,2,110,13,,,,2_con_circum_image_66.png,66,79.42074919313892,79.67239842434647,,,,,1,1,2024-10-28_22h34.19.371,visual,2024.1.5,119.89634958421668,
3_con_circum,0.25,3,6,3,111,14,,,,3_con_circum_image_53.png,53,79.85561101776548,80.10463446633658,,,,,1,1,2024-10-28_22h34.19.371,visual,2024.1.5,119.89634958421668,
1_con_totaldot,0.25,1,6,4,112,6,,,,1_con_totaldot_image_49.png,49,80.29452023418854,80.54645134134917,,,,,1,1,2024-10-28_22h34.19.371,visual,2024.1.5,119.89634958421668,
6_con_circum,0.25,6,6,5,113,17,,,,6_con_circum_image_37.png,37,80.72937493477949,80.97927954931511,,,,,1,1,2024-10-28_22h34.19.371,visual,2024.1.5,119.89634958421668,
6_con_singledot,0.25,6,6,6,114,5,,,,6_con_singledot_image_25.png,25,81.16186910073739,81.41257159131347,,,,,1,1,2024-10-28_22h34.19.371,visual,2024.1.5,119.89634958421668,
6_con_totaldot,0.25,6,6,7,115,11,,,,6_con_totaldot_image_63.png,63,81.5959445597604,81.84624992437894,,,,,1,1,2024-10-28_22h34.19.371,visual,2024.1.5,119.89634958421668,
2_con_singledot,0.25,2,6,8,116,1,,,,2_con_singledot_image_20.png,20,82.02847168475856,82.28879700832768,,,,,1,1,2024-10-28_22h34.19.371,visual,2024.1.5,119.89634958421668,
4_con_circum,0.25,4,6,9,117,15,,,,4_con_circum_image_40.png,40,82.47029055978638,82.72133267436875,,,,,1,1,2024-10-28_22h34.19.371,visual,2024.1.5,119.89634958421668,
2_con_totaldot,0.25,2,6,10,118,7,,,,2_con_totaldot_image_30.png,30,82.90290630978998,83.15468971639639,,,,,1,1,2024-10-28_22h34.19.371,visual,2024.1.5,119.89634958421668,
1_con_circum,0.25,1,6,11,119,12,,,,1_con_circum_image_64.png,64,83.34467048415682,83.59581629930763,,,,,1,1,2024-10-28_22h34.19.371,visual,2024.1.5,119.89634958421668,
5_con_circum,0.25,5,6,12,120,16,,,,5_con_circum_image_6.png,6,83.77957743473817,84.02937588338973,,,,,1,1,2024-10-28_22h34.19.371,visual,2024.1.5,119.89634958421668,
5_con_singledot,0.25,5,6,13,121,4,,,,5_con_singledot_image_51.png,51,84.21179051776417,84.46290796633112,,,,,1,1,2024-10-28_22h34.19.371,visual,2024.1.5,119.89634958421668,
4_con_totaldot,0.25,4,6,14,122,9,,,,4_con_totaldot_image_13.png,13,84.64557989276946,84.89624784128974,,,,,1,1,2024-10-28_22h34.19.371,visual,2024.1.5,119.89634958421668,
5_con_totaldot,0.25,5,6,15,123,10,,,,5_con_totaldot_image_13.png,13,85.07905843479094,85.32893421639456,,,,,1,1,2024-10-28_22h34.19.371,visual,2024.1.5,119.89634958421668,
1_con_singledot,0.25,1,6,16,124,0,,,,1_con_singledot_image_54.png,54,85.51244985077065,85.76230846635299,,,,,1,1,2024-10-28_22h34.19.371,visual,2024.1.5,119.89634958421668,
4_con_singledot,0.25,4,6,17,125,3,,,,4_con_singledot_image_29.png,29,85.94615997569636,86.19551742436597,1.wav,86.29677437490318,5.mp4,86.29677437490318,1,1,2024-10-28_22h34.19.371,visual,2024.1.5,119.89634958421668,
5_con_circum,0.25,5,7,0,126,16,,,,5_con_circum_image_15.png,15,88.20703656474362,88.46238404930337,,,,,1,1,2024-10-28_22h34.19.371,visual,2024.1.5,119.89634958421668,
2_con_circum,0.25,2,7,1,127,13,,,,2_con_circum_image_54.png,54,88.65404890113278,88.90468225836521,,,,,1,1,2024-10-28_22h34.19.371,visual,2024.1.5,119.89634958421668,
3_con_circum,0.25,3,7,2,128,14,,,,3_con_circum_image_39.png,39,89.08628122576047,89.33858634134522,,,,,1,1,2024-10-28_22h34.19.371,visual,2024.1.5,119.89634958421668,
2_con_totaldot,0.25,2,7,3,129,7,,,,2_con_totaldot_image_66.png,66,89.52011047569104,89.77186959130923,,,,,1,1,2024-10-28_22h34.19.371,visual,2024.1.5,119.89634958421668,
1_con_circum,0.25,1,7,4,130,12,,,,1_con_circum_image_12.png,12,89.95331489269157,90.20562017440098,,,,,1,1,2024-10-28_22h34.19.371,visual,2024.1.5,119.89634958421668,
3_con_singledot,0.25,3,7,5,131,2,,,,3_con_singledot_image_67.png,67,90.38729651770555,90.63855388340308,,,,,1,1,2024-10-28_22h34.19.371,visual,2024.1.5,119.89634958421668,
2_con_singledot,0.25,2,7,6,132,1,,,,2_con_singledot_image_36.png,36,90.82006268468686,91.07169634137536,,,,,1,1,2024-10-28_22h34.19.371,visual,2024.1.5,119.89634958421668,
5_con_totaldot,0.25,5,7,7,133,10,,,,5_con_totaldot_image_69.png,69,91.26151077608812,91.51241642433452,,,,,1,1,2024-10-28_22h34.19.371,visual,2024.1.5,119.89634958421668,
4_con_singledot,0.25,4,7,8,134,3,,,,4_con_singledot_image_19.png,19,91.69623035073747,91.94602659133962,,,,,1,1,2024-10-28_22h34.19.371,visual,2024.1.5,119.89634958421668,
6_con_circum,0.25,6,7,9,135,17,,,,6_con_circum_image_41.png,41,92.13744819312124,92.38858763336903,,,,,1,1,2024-10-28_22h34.19.371,visual,2024.1.5,119.89634958421668,
4_con_totaldot,0.25,4,7,10,136,9,,,,4_con_totaldot_image_32.png,32,92.57078668472823,92.8214686743333,,,,,1,1,2024-10-28_22h34.19.371,visual,2024.1.5,119.89634958421668,
1_con_totaldot,0.25,1,7,11,137,6,,,,1_con_totaldot_image_21.png,21,93.00323110071477,93.2552875083522,,,,,1,1,2024-10-28_22h34.19.371,visual,2024.1.5,119.89634958421668,
3_con_totaldot,0.25,3,7,12,138,8,,,,3_con_totaldot_image_43.png,43,93.43702697576956,93.68866629932309,,,,,1,1,2024-10-28_22h34.19.371,visual,2024.1.5,119.89634958421668,
1_con_singledot,0.25,1,7,13,139,0,,,,1_con_singledot_image_22.png,22,93.87012639278547,94.1222644243273,,,,,1,1,2024-10-28_22h34.19.371,visual,2024.1.5,119.89634958421668,
6_con_singledot,0.25,6,7,14,140,5,,,,6_con_singledot_image_3.png,3,94.30396585070994,94.55520434129285,,,,,1,1,2024-10-28_22h34.19.371,visual,2024.1.5,119.89634958421668,
6_con_totaldot,0.25,6,7,15,141,11,,,,6_con_totaldot_image_7.png,7,94.74501373417444,94.99612571635517,,,,,1,1,2024-10-28_22h34.19.371,visual,2024.1.5,119.89634958421668,
4_con_circum,0.25,4,7,16,142,15,,,,4_con_circum_image_43.png,43,95.18002360078972,95.43903696628986,,,,,1,1,2024-10-28_22h34.19.371,visual,2024.1.5,119.89634958421668,
5_con_singledot,0.25,5,7,17,143,4,,,,5_con_singledot_image_33.png,33,95.62889690111625,95.87973688332131,5.wav,95.98082020797301,2.mp4,95.98082020797301,1,1,2024-10-28_22h34.19.371,visual,2024.1.5,119.89634958421668,
6_con_singledot,0.25,6,8,0,144,5,,,,6_con_singledot_image_41.png,41,97.91470381469699,98.17209217440104,,,,,1,1,2024-10-28_22h34.19.371,visual,2024.1.5,119.89634958421668,
4_con_singledot,0.25,4,8,1,145,3,,,,4_con_singledot_image_60.png,60,98.36235215115595,98.61306571633322,,,,,1,1,2024-10-28_22h34.19.371,visual,2024.1.5,119.89634958421668,
6_con_circum,0.25,6,8,2,146,17,,,,6_con_circum_image_49.png,49,98.7959790597437,99.04678167436505,,,,,1,1,2024-10-28_22h34.19.371,visual,2024.1.5,119.89634958421668,
5_con_circum,0.25,5,8,3,147,16,,,,5_con_circum_image_30.png,30,99.22876680977643,99.47939321630402,,,,,1,1,2024-10-28_22h34.19.371,visual,2024.1.5,119.89634958421668,
5_con_totaldot,0.25,5,8,4,148,10,,,,5_con_totaldot_image_51.png,51,99.66267385075335,99.91328109136084,,,,,1,1,2024-10-28_22h34.19.371,visual,2024.1.5,119.89634958421668,
6_con_totaldot,0.25,6,8,5,149,11,,,,6_con_totaldot_image_19.png,19,100.09543539278675,100.3460691333632,,,,,1,1,2024-10-28_22h34.19.371,visual,2024.1.5,119.89634958421668,
3_con_circum,0.25,3,8,6,150,14,,,,3_con_circum_image_67.png,67,100.53766856816365,100.78838234137511,,,,,1,1,2024-10-28_22h34.19.371,visual,2024.1.5,119.89634958421668,
1_con_circum,0.25,1,8,7,151,12,,,,1_con_circum_image_60.png,60,100.97162780978252,101.22228225831641,,,,,1,1,2024-10-28_22h34.19.371,visual,2024.1.5,119.89634958421668,
1_con_totaldot,0.25,1,8,8,152,6,,,,1_con_totaldot_image_9.png,9,101.40370810076129,101.65535088336328,,,,,1,1,2024-10-28_22h34.19.371,visual,2024.1.5,119.89634958421668,
4_con_circum,0.25,4,8,9,153,15,,,,4_con_circum_image_68.png,68,101.83618685076945,102.08822600833373,,,,,1,1,2024-10-28_22h34.19.371,visual,2024.1.5,119.89634958421668,
4_con_totaldot,0.25,4,8,10,154,9,,,,4_con_totaldot_image_18.png,18,102.26977001780179,102.52204113336047,,,,,1,1,2024-10-28_22h34.19.371,visual,2024.1.5,119.89634958421668,
2_con_singledot,0.25,2,8,11,155,1,,,,2_con_singledot_image_28.png,28,102.703631767747,102.9554487992893,,,,,1,1,2024-10-28_22h34.19.371,visual,2024.1.5,119.89634958421668,
2_con_totaldot,0.25,2,8,12,156,7,,,,2_con_totaldot_image_7.png,7,103.14521615110571,103.3959538832889,,,,,1,1,2024-10-28_22h34.19.371,visual,2024.1.5,119.89634958421668,
3_con_singledot,0.25,3,8,13,157,2,,,,3_con_singledot_image_10.png,10,103.57968897579704,103.82900729937246,,,,,1,1,2024-10-28_22h34.19.371,visual,2024.1.5,119.89634958421668,
2_con_circum,0.25,2,8,14,158,13,,,,2_con_circum_image_16.png,16,104.01305285070558,104.26333484133939,,,,,1,1,2024-10-28_22h34.19.371,visual,2024.1.5,119.89634958421668,
5_con_singledot,0.25,5,8,15,159,4,,,,5_con_singledot_image_39.png,39,104.4454801847227,104.69638434132794,,,,,1,1,2024-10-28_22h34.19.371,visual,2024.1.5,119.89634958421668,
3_con_totaldot,0.25,3,8,16,160,8,,,,3_con_totaldot_image_9.png,9,104.87965989273508,105.12965638329042,,,,,1,1,2024-10-28_22h34.19.371,visual,2024.1.5,119.89634958421668,
1_con_singledot,0.25,1,8,17,161,0,,,,1_con_singledot_image_9.png,9,105.32092319309014,105.57223646632629,2.wav,105.6720201659482,14.mp4,105.6720201659482,1,1,2024-10-28_22h34.19.371,visual,2024.1.5,119.89634958421668,
5_con_totaldot,0.25,5,9,0,162,10,,,,5_con_totaldot_image_32.png,32,107.57278510675533,107.82209563335637,,,,,1,1,2024-10-28_22h34.19.371,visual,2024.1.5,119.89634958421668,
2_con_singledot,0.25,2,9,1,163,1,,,,2_con_singledot_image_22.png,22,108.00397180973087,108.25503184132977,,,,,1,1,2024-10-28_22h34.19.371,visual,2024.1.5,119.89634958421668,
4_con_circum,0.25,4,9,2,164,15,,,,4_con_circum_image_12.png,12,108.43657222574112,108.68831025831169,,,,,1,1,2024-10-28_22h34.19.371,visual,2024.1.5,119.89634958421668,
6_con_totaldot,0.25,6,9,3,165,11,,,,6_con_totaldot_image_37.png,37,108.86982439269778,109.12196792439791,,,,,1,1,2024-10-28_22h34.19.371,visual,2024.1.5,119.89634958421668,
6_con_singledot,0.25,6,9,4,166,5,,,,6_con_singledot_image_57.png,57,109.30352255979088,109.55497142438544,,,,,1,1,2024-10-28_22h34.19.371,visual,2024.1.5,119.89634958421668,
3_con_totaldot,0.25,3,9,5,167,8,,,,3_con_totaldot_image_18.png,18,109.73647260069848,109.98876192431199,,,,,1,1,2024-10-28_22h34.19.371,visual,2024.1.5,119.89634958421668,
6_con_circum,0.25,6,9,6,168,17,,,,6_con_circum_image_4.png,4,110.17036026772112,110.42235429933062,,,,,1,1,2024-10-28_22h34.19.371,visual,2024.1.5,119.89634958421668,
2_con_totaldot,0.25,2,9,7,169,7,,,,2_con_totaldot_image_3.png,3,110.60395818469115,110.85547234140104,,,,,1,1,2024-10-28_22h34.19.371,visual,2024.1.5,119.89634958421668,
4_con_singledot,0.25,4,9,8,170,3,,,,4_con_singledot_image_54.png,54,111.03712285074872,111.28880371629494,,,,,1,1,2024-10-28_22h34.19.371,visual,2024.1.5,119.89634958421668,
1_con_totaldot,0.25,1,9,9,171,6,,,,1_con_totaldot_image_50.png,50,111.47039639272262,111.72160146640381,,,,,1,1,2024-10-28_22h34.19.371,visual,2024.1.5,119.89634958421668,
5_con_circum,0.25,5,9,10,172,16,,,,5_con_circum_image_22.png,22,111.90313705974259,112.15502221636707,,,,,1,1,2024-10-28_22h34.19.371,visual,2024.1.5,119.89634958421668,
2_con_circum,0.25,2,9,11,173,13,,,,2_con_circum_image_28.png,28,112.34489085917595,112.59578342431924,,,,,1,1,2024-10-28_22h34.19.371,visual,2024.1.5,119.89634958421668,
4_con_totaldot,0.25,4,9,12,174,9,,,,4_con_totaldot_image_70.png,70,112.77945930974093,113.02941650837893,,,,,1,1,2024-10-28_22h34.19.371,visual,2024.1.5,119.89634958421668,
1_con_singledot,0.25,1,9,13,175,0,,,,1_con_singledot_image_30.png,30,113.2213306511636,113.47258225838887,,,,,1,1,2024-10-28_22h34.19.371,visual,2024.1.5,119.89634958421668,
3_con_singledot,0.25,3,9,14,176,2,,,,3_con_singledot_image_25.png,25,113.65410576770083,113.90522196631646,,,,,1,1,2024-10-28_22h34.19.371,visual,2024.1.5,119.89634958421668,
5_con_singledot,0.25,5,9,15,177,4,,,,5_con_singledot_image_64.png,64,114.09514748418006,114.34631325838855,,,,,1,1,2024-10-28_22h34.19.371,visual,2024.1.5,119.89634958421668,
3_con_circum,0.25,3,9,16,178,14,,,,3_con_circum_image_28.png,28,114.5290193097666,114.78001734135906,,,,,1,1,2024-10-28_22h34.19.371,visual,2024.1.5,119.89634958421668,
1_con_circum,0.25,1,9,17,179,12,,,,1_con_circum_image_40.png,40,114.96227405974642,115.21299854932586,1.wav,115.31468762492295,13.mp4,115.31468762492295,1,1,2024-10-28_22h34.19.371,visual,2024.1.5,119.89634958421668,
5_con_circum,0.25,5,10,0,180,16,,,,5_con_circum_image_26.png,26,117.22946931471816,117.47985709131463,,,,,1,1,2024-10-28_22h34.19.371,visual,2024.1.5,119.89634958421668,
1_con_totaldot,0.25,1,10,1,181,6,,,,1_con_totaldot_image_7.png,7,117.66235160080251,117.91327742439462,,,,,1,1,2024-10-28_22h34.19.371,visual,2024.1.5,119.89634958421668,
5_con_singledot,0.25,5,10,2,182,4,,,,5_con_singledot_image_65.png,65,118.09552697578911,118.34585404930404,,,,,1,1,2024-10-28_22h34.19.371,visual,2024.1.5,119.89634958421668,
2_con_totaldot,0.25,2,10,3,183,7,,,,2_con_totaldot_image_69.png,69,118.52920935079456,118.77971579936566,,,,,1,1,2024-10-28_22h34.19.371,visual,2024.1.5,119.89634958421668,
4_con_singledot,0.25,4,10,4,184,3,,,,4_con_singledot_image_61.png,61,118.96307126779575,119.21305929938099,,,,,1,1,2024-10-28_22h34.19.371,visual,2024.1.5,119.89634958421668,
6_con_singledot,0.25,6,10,5,185,5,,,,6_con_singledot_image_68.png,68,119.39581943475642,119.64731550832512,,,,,1,1,2024-10-28_22h34.19.371,visual,2024.1.5,119.89634958421668,
6_con_totaldot,0.25,6,10,6,186,11,,,,6_con_totaldot_image_3.png,3,119.84690061754081,120.09594196638791,,,,,1,1,2024-10-28_22h34.19.371,visual,2024.1.5,119.89634958421668,
4_con_totaldot,0.25,4,10,7,187,9,,,,4_con_totaldot_image_20.png,20,120.27900010077283,120.53122604939854,,,,,1,1,2024-10-28_22h34.19.371,visual,2024.1.5,119.89634958421668,
1_con_singledot,0.25,1,10,8,188,0,,,,1_con_singledot_image_47.png,47,120.7135881847702,120.96326475833776,,,,,1,1,2024-10-28_22h34.19.371,visual,2024.1.5,119.89634958421668,
2_con_singledot,0.25,2,10,9,189,1,,,,2_con_singledot_image_1.png,1,121.1460648927372,121.39536884134868,,,,,1,1,2024-10-28_22h34.19.371,visual,2024.1.5,119.89634958421668,
5_con_totaldot,0.25,5,10,10,190,10,,,,5_con_totaldot_image_60.png,60,121.57967555974611,121.83928842433961,,,,,1,1,2024-10-28_22h34.19.371,visual,2024.1.5,119.89634958421668,
4_con_circum,0.25,4,10,11,191,15,,,,4_con_circum_image_26.png,26,122.02069535069168,122.27208517432446,,,,,1,1,2024-10-28_22h34.19.371,visual,2024.1.5,119.89634958421668,
2_con_circum,0.25,2,10,12,192,13,,,,2_con_circum_image_35.png,35,122.4552901007468,122.70516638340196,,,,,1,1,2024-10-28_22h34.19.371,visual,2024.1.5,119.89634958421668,
3_con_circum,0.25,3,10,13,193,14,,,,3_con_circum_image_22.png,22,122.8866613507038,123.139156883338,,,,,1,1,2024-10-28_22h34.19.371,visual,2024.1.5,119.89634958421668,
6_con_circum,0.25,6,10,14,194,17,,,,6_con_circum_image_26.png,26,123.32063693469391,123.57247250840301,,,,,1,1,2024-10-28_22h34.19.371,visual,2024.1.5,119.89634958421668,
3_con_singledot,0.25,3,10,15,195,2,,,,3_con_singledot_image_9.png,9,123.75395164275542,124.00572017439409,,,,,1,1,2024-10-28_22h34.19.371,visual,2024.1.5,119.89634958421668,
3_con_totaldot,0.25,3,10,16,196,8,,,,3_con_totaldot_image_57.png,57,124.1872921427479,124.43887471639319,,,,,1,1,2024-10-28_22h34.19.371,visual,2024.1.5,119.89634958421668,
1_con_circum,0.25,1,10,17,197,12,,,,1_con_circum_image_68.png,68,124.62879344316899,124.88155542429304,1.wav,124.98337424988858,1.mp4,124.98337424988858,1,1,2024-10-28_22h34.19.371,visual,2024.1.5,119.89634958421668,
3_con_singledot,0.25,3,11,0,198,2,,,,3_con_singledot_image_49.png,49,126.88826718976489,127.13937463330804,,,,,1,1,2024-10-28_22h34.19.371,visual,2024.1.5,119.89634958421668,
2_con_circum,0.25,2,11,1,199,13,,,,2_con_circum_image_34.png,34,127.3386577341822,127.588485924399,,,,,1,1,2024-10-28_22h34.19.371,visual,2024.1.5,119.89634958421668,
1_con_totaldot,0.25,1,11,2,200,6,,,,1_con_totaldot_image_40.png,40,127.77827898409451,128.02955034129553,,,,,1,1,2024-10-28_22h34.19.371,visual,2024.1.5,119.89634958421668,
5_con_circum,0.25,5,11,3,201,16,,,,5_con_circum_image_66.png,66,128.21327485071959,128.46307663338956,,,,,1,1,2024-10-28_22h34.19.371,visual,2024.1.5,119.89634958421668,
1_con_singledot,0.25,1,11,4,202,0,,,,1_con_singledot_image_46.png,46,128.64623655970206,128.89642584136453,,,,,1,1,2024-10-28_22h34.19.371,visual,2024.1.5,119.89634958421668,
6_con_circum,0.25,6,11,5,203,17,,,,6_con_circum_image_57.png,57,129.07914193472823,129.3298245913931,,,,,1,1,2024-10-28_22h34.19.371,visual,2024.1.5,119.89634958421668,
3_con_circum,0.25,3,11,6,204,14,,,,3_con_circum_image_48.png,48,129.52167077615158,129.7723955083522,,,,,1,1,2024-10-28_22h34.19.371,visual,2024.1.5,119.89634958421668,
1_con_circum,0.25,1,11,7,205,12,,,,1_con_circum_image_2.png,2,129.95330797575878,130.2057726333034,,,,,1,1,2024-10-28_22h34.19.371,visual,2024.1.5,119.89634958421668,
2_con_singledot,0.25,2,11,8,206,1,,,,2_con_singledot_image_62.png,62,130.39562569310655,130.64693425839067,,,,,1,1,2024-10-28_22h34.19.371,visual,2024.1.5,119.89634958421668,
5_con_totaldot,0.25,5,11,9,207,10,,,,5_con_totaldot_image_2.png,2,130.83004610075147,131.0799416333786,,,,,1,1,2024-10-28_22h34.19.371,visual,2024.1.5,119.89634958421668,
4_con_circum,0.25,4,11,10,208,15,,,,4_con_circum_image_29.png,29,131.26349393473936,131.51356946629238,,,,,1,1,2024-10-28_22h34.19.371,visual,2024.1.5,119.89634958421668,
4_con_singledot,0.25,4,11,11,209,3,,,,4_con_singledot_image_23.png,23,131.69627585073465,131.9469000913552,,,,,1,1,2024-10-28_22h34.19.371,visual,2024.1.5,119.89634958421668,
2_con_totaldot,0.25,2,11,12,210,7,,,,2_con_totaldot_image_8.png,8,132.13792802611133,132.38903109134407,,,,,1,1,2024-10-28_22h34.19.371,visual,2024.1.5,119.89634958421668,
4_con_totaldot,0.25,4,11,13,211,9,,,,4_con_totaldot_image_55.png,55,132.57057330976238,132.82244550831382,,,,,1,1,2024-10-28_22h34.19.371,visual,2024.1.5,119.89634958421668,
5_con_singledot,0.25,5,11,14,212,4,,,,5_con_singledot_image_60.png,60,133.00403855971524,133.25523017438826,,,,,1,1,2024-10-28_22h34.19.371,visual,2024.1.5,119.89634958421668,
6_con_singledot,0.25,6,11,15,213,5,,,,6_con_singledot_image_24.png,24,133.43691622579934,133.68922096629393,,,,,1,1,2024-10-28_22h34.19.371,visual,2024.1.5,119.89634958421668,
6_con_totaldot,0.25,6,11,16,214,11,,,,6_con_totaldot_image_60.png,60,133.87079264279453,134.12194438335717,,,,,1,1,2024-10-28_22h34.19.371,visual,2024.1.5,119.89634958421668,
3_con_totaldot,0.25,3,11,17,215,8,,,,3_con_totaldot_image_30.png,30,134.31165890112752,134.5627843413851,3.wav,134.6647348329425,3.mp4,134.6647348329425,1,1,2024-10-28_22h34.19.371,visual,2024.1.5,119.89634958421668,
2_con_totaldot,0.25,2,12,0,216,7,,,,2_con_totaldot_image_35.png,35,136.57320318968266,136.82963334139203,,,,,1,1,2024-10-28_22h34.19.371,visual,2024.1.5,119.89634958421668,
5_con_circum,0.25,5,12,1,217,16,,,,5_con_circum_image_43.png,43,137.02091815109597,137.27199521636356,,,,,1,1,2024-10-28_22h34.19.371,visual,2024.1.5,119.89634958421668,
2_con_singledot,0.25,2,12,2,218,1,,,,2_con_singledot_image_49.png,49,137.45349480977745,137.7058340083924,,,,,1,1,2024-10-28_22h34.19.371,visual,2024.1.5,119.89634958421668,
4_con_singledot,0.25,4,12,3,219,3,,,,4_con_singledot_image_20.png,20,137.8873753096908,138.13936654931166,,,,,1,1,2024-10-28_22h34.19.371,visual,2024.1.5,119.89634958421668,
4_con_totaldot,0.25,4,12,4,220,9,,,,4_con_totaldot_image_36.png,36,138.32084551777223,138.57250867433612,,,,,1,1,2024-10-28_22h34.19.371,visual,2024.1.5,119.89634958421668,
6_con_totaldot,0.25,6,12,5,221,11,,,,6_con_totaldot_image_50.png,50,138.76244173416634,139.01298804929246,,,,,1,1,2024-10-28_22h34.19.371,visual,2024.1.5,119.89634958421668,
4_con_circum,0.25,4,12,6,222,15,,,,4_con_circum_image_56.png,56,139.1964058507932,139.44721292435423,,,,,1,1,2024-10-28_22h34.19.371,visual,2024.1.5,119.89634958421668,
5_con_singledot,0.25,5,12,7,223,4,,,,5_con_singledot_image_41.png,41,139.62971430979667,139.8798483833554,,,,,1,1,2024-10-28_22h34.19.371,visual,2024.1.5,119.89634958421668,
1_con_totaldot,0.25,1,12,8,224,6,,,,1_con_totaldot_image_22.png,22,140.06297889279665,140.3136665912927,,,,,1,1,2024-10-28_22h34.19.371,visual,2024.1.5,119.89634958421668,
2_con_circum,0.25,2,12,9,225,13,,,,2_con_circum_image_64.png,64,140.50464535920182,140.75535150837385,,,,,1,1,2024-10-28_22h34.19.371,visual,2024.1.5,119.89634958421668,
5_con_totaldot,0.25,5,12,10,226,10,,,,5_con_totaldot_image_27.png,27,140.9368666007416,141.18879346629836,,,,,1,1,2024-10-28_22h34.19.371,visual,2024.1.5,119.89634958421668,
1_con_singledot,0.25,1,12,11,227,0,,,,1_con_singledot_image_25.png,25,141.37035589278673,141.6220752993715,,,,,1,1,2024-10-28_22h34.19.371,visual,2024.1.5,119.89634958421668,
3_con_totaldot,0.25,3,12,12,228,8,,,,3_con_totaldot_image_6.png,6,141.80385522576978,142.05544175835092,,,,,1,1,2024-10-28_22h34.19.371,visual,2024.1.5,119.89634958421668,
3_con_circum,0.25,3,12,13,229,14,,,,3_con_circum_image_10.png,10,142.23692985074592,142.48880346630466,,,,,1,1,2024-10-28_22h34.19.371,visual,2024.1.5,119.89634958421668,
6_con_singledot,0.25,6,12,14,230,5,,,,6_con_singledot_image_64.png,64,142.6697278097039,142.9225348833599,,,,,1,1,2024-10-28_22h34.19.371,visual,2024.1.5,119.89634958421668,
6_con_circum,0.25,6,12,15,231,17,,,,6_con_circum_image_31.png,31,143.10400697574948,143.35543134132166,,,,,1,1,2024-10-28_22h34.19.371,visual,2024.1.5,119.89634958421668,
3_con_singledot,0.25,3,12,16,232,2,,,,3_con_singledot_image_70.png,70,143.54527069310424,143.7970437992946,,,,,1,1,2024-10-28_22h34.19.371,visual,2024.1.5,119.89634958421668,
1_con_circum,0.25,1,12,17,233,12,,,,1_con_circum_image_17.png,17,143.9792568097822,144.23008979937293,4.wav,144.33101595798507,3.mp4,144.33101595798507,1,1,2024-10-28_22h34.19.371,visual,2024.1.5,119.89634958421668,
6_con_totaldot,0.25,6,13,0,234,11,,,,6_con_totaldot_image_22.png,22,146.2460283734952,146.50628629931015,,,,,1,1,2024-10-28_22h34.19.371,visual,2024.1.5,119.89634958421668,
5_con_circum,0.25,5,13,1,235,16,,,,5_con_circum_image_62.png,62,146.69733144316123,146.94701967433792,,,,,1,1,2024-10-28_22h34.19.371,visual,2024.1.5,119.89634958421668,
4_con_singledot,0.25,4,13,2,236,3,,,,4_con_singledot_image_32.png,32,147.12943393478633,147.37903117433888,,,,,1,1,2024-10-28_22h34.19.371,visual,2024.1.5,119.89634958421668,
1_con_singledot,0.25,1,13,3,237,0,,,,1_con_singledot_image_18.png,18,147.57121556819183,147.82218809133627,,,,,1,1,2024-10-28_22h34.19.371,visual,2024.1.5,119.89634958421668,
6_con_circum,0.25,6,13,4,238,17,,,,6_con_circum_image_70.png,70,148.00310335073152,148.25583175836363,,,,,1,1,2024-10-28_22h34.19.371,visual,2024.1.5,119.89634958421668,
5_con_totaldot,0.25,5,13,5,239,10,,,,5_con_totaldot_image_28.png,28,148.43738935070576,148.68952425835886,,,,,1,1,2024-10-28_22h34.19.371,visual,2024.1.5,119.89634958421668,
3_con_circum,0.25,3,13,6,240,14,,,,3_con_circum_image_65.png,65,148.87111455979755,149.12257888329913,,,,,1,1,2024-10-28_22h34.19.371,visual,2024.1.5,119.89634958421668,
2_con_singledot,0.25,2,13,7,241,1,,,,2_con_singledot_image_46.png,46,149.30402260073458,149.55587175836553,,,,,1,1,2024-10-28_22h34.19.371,visual,2024.1.5,119.89634958421668,
3_con_singledot,0.25,3,13,8,242,2,,,,3_con_singledot_image_14.png,14,149.73682193479033,149.9888076743693,,,,,1,1,2024-10-28_22h34.19.371,visual,2024.1.5,119.89634958421668,
2_con_circum,0.25,2,13,9,243,13,,,,2_con_circum_image_50.png,50,150.16960201770996,150.42218900831648,,,,,1,1,2024-10-28_22h34.19.371,visual,2024.1.5,119.89634958421668,
2_con_totaldot,0.25,2,13,10,244,7,,,,2_con_totaldot_image_52.png,52,150.60364289276765,150.8558597162948,,,,,1,1,2024-10-28_22h34.19.371,visual,2024.1.5,119.89634958421668,
1_con_circum,0.25,1,13,11,245,12,,,,1_con_circum_image_55.png,55,151.03672430976292,151.28923950832103,,,,,1,1,2024-10-28_22h34.19.371,visual,2024.1.5,119.89634958421668,
5_con_singledot,0.25,5,13,12,246,4,,,,5_con_singledot_image_2.png,2,151.47025089277884,151.72222721633733,,,,,1,1,2024-10-28_22h34.19.371,visual,2024.1.5,119.89634958421668,
4_con_circum,0.25,4,13,13,247,15,,,,4_con_circum_image_45.png,45,151.91134715111693,152.16512304939096,,,,,1,1,2024-10-28_22h34.19.371,visual,2024.1.5,119.89634958421668,
1_con_totaldot,0.25,1,13,14,248,6,,,,1_con_totaldot_image_6.png,6,152.34625605968756,152.5961940493318,,,,,1,1,2024-10-28_22h34.19.371,visual,2024.1.5,119.89634958421668,
3_con_totaldot,0.25,3,13,15,249,8,,,,3_con_totaldot_image_13.png,13,152.78062297576105,153.03015129930571,,,,,1,1,2024-10-28_22h34.19.371,visual,2024.1.5,119.89634958421668,
6_con_singledot,0.25,6,13,16,250,5,,,,6_con_singledot_image_62.png,62,153.21363222573416,153.46367009134264,,,,,1,1,2024-10-28_22h34.19.371,visual,2024.1.5,119.89634958421668,
4_con_totaldot,0.25,4,13,17,251,9,,,,4_con_totaldot_image_24.png,24,153.64654464272314,153.89630942429648,2.wav,153.99854874995071,11.mp4,153.99854874995071,1,1,2024-10-28_22h34.19.371,visual,2024.1.5,119.89634958421668,
1_con_singledot,0.25,1,14,0,252,0,,,,1_con_singledot_image_2.png,2,155.94149998171486,156.19650725832906,,,,,1,1,2024-10-28_22h34.19.371,visual,2024.1.5,119.89634958421668,
3_con_totaldot,0.25,3,14,1,253,8,,,,3_con_totaldot_image_45.png,45,156.39724986751096,156.6563340913155,,,,,1,1,2024-10-28_22h34.19.371,visual,2024.1.5,119.89634958421668,
6_con_circum,0.25,6,14,2,254,17,,,,6_con_circum_image_21.png,21,156.83800293479578,157.08936054933582,,,,,1,1,2024-10-28_22h34.19.371,visual,2024.1.5,119.89634958421668,
4_con_circum,0.25,4,14,3,255,15,,,,4_con_circum_image_7.png,7,157.2710287257563,157.52275559130356,,,,,1,1,2024-10-28_22h34.19.371,visual,2024.1.5,119.89634958421668,
5_con_circum,0.25,5,14,4,256,16,,,,5_con_circum_image_42.png,42,157.71270452610915,157.96313184137688,,,,,1,1,2024-10-28_22h34.19.371,visual,2024.1.5,119.89634958421668,
2_con_circum,0.25,2,14,5,257,13,,,,2_con_circum_image_25.png,25,158.1467987257987,158.39675771630135,,,,,1,1,2024-10-28_22h34.19.371,visual,2024.1.5,119.89634958421668,
5_con_totaldot,0.25,5,14,6,258,10,,,,5_con_totaldot_image_16.png,16,158.58008201778864,158.82972342438296,,,,,1,1,2024-10-28_22h34.19.371,visual,2024.1.5,119.89634958421668,
2_con_singledot,0.25,2,14,7,259,1,,,,2_con_singledot_image_59.png,59,159.02195019318023,159.27270275830523,,,,,1,1,2024-10-28_22h34.19.371,visual,2024.1.5,119.89634958421668,
4_con_singledot,0.25,4,14,8,260,3,,,,4_con_singledot_image_39.png,39,159.4625104841194,159.71374529936583,,,,,1,1,2024-10-28_22h34.19.371,visual,2024.1.5,119.89634958421668,
4_con_totaldot,0.25,4,14,9,261,9,,,,4_con_totaldot_image_31.png,31,159.8960671426961,160.14731509132542,,,,,1,1,2024-10-28_22h34.19.371,visual,2024.1.5,119.89634958421668,
1_con_circum,0.25,1,14,10,262,12,,,,1_con_circum_image_18.png,18,160.33015818472484,160.5801445083809,,,,,1,1,2024-10-28_22h34.19.371,visual,2024.1.5,119.89634958421668,
2_con_totaldot,0.25,2,14,11,263,7,,,,2_con_totaldot_image_11.png,11,160.76277443473225,161.01399596639675,,,,,1,1,2024-10-28_22h34.19.371,visual,2024.1.5,119.89634958421668,
3_con_singledot,0.25,3,14,12,264,2,,,,3_con_singledot_image_57.png,57,161.19625847574787,161.44644604936474,,,,,1,1,2024-10-28_22h34.19.371,visual,2024.1.5,119.89634958421668,
1_con_totaldot,0.25,1,14,13,265,6,,,,1_con_totaldot_image_26.png,26,161.63044960072727,161.88047288333763,,,,,1,1,2024-10-28_22h34.19.371,visual,2024.1.5,119.89634958421668,
5_con_singledot,0.25,5,14,14,266,4,,,,5_con_singledot_image_55.png,55,162.0636303507257,162.31321663338457,,,,,1,1,2024-10-28_22h34.19.371,visual,2024.1.5,119.89634958421668,
3_con_circum,0.25,3,14,15,267,14,,,,3_con_circum_image_7.png,7,162.49614876774137,162.7472445913474,,,,,1,1,2024-10-28_22h34.19.371,visual,2024.1.5,119.89634958421668,
6_con_totaldot,0.25,6,14,16,268,11,,,,6_con_totaldot_image_29.png,29,162.93031347575595,163.1803899663384,,,,,1,1,2024-10-28_22h34.19.371,visual,2024.1.5,119.89634958421668,
6_con_singledot,0.25,6,14,17,269,5,,,,6_con_singledot_image_10.png,10,163.37121431817067,163.62309079930418,2.wav,163.72191349999048,14.mp4,163.72191349999048,1,1,2024-10-28_22h34.19.371,visual,2024.1.5,119.89634958421668,
4_con_singledot,0.25,4,15,0,270,3,,,,4_con_singledot_image_52.png,52,165.6265531067387,165.88050346634117,,,,,1,1,2024-10-28_22h34.19.371,visual,2024.1.5,119.89634958421668,
2_con_totaldot,0.25,2,15,1,271,7,,,,2_con_totaldot_image_53.png,53,166.07159456816734,166.32239300837972,,,,,1,1,2024-10-28_22h34.19.371,visual,2024.1.5,119.89634958421668,
2_con_singledot,0.25,2,15,2,272,1,,,,2_con_singledot_image_24.png,24,166.50393126774577,166.75567684135166,,,,,1,1,2024-10-28_22h34.19.371,visual,2024.1.5,119.89634958421668,
6_con_totaldot,0.25,6,15,3,273,11,,,,6_con_totaldot_image_46.png,46,166.9373563506873,167.18894779937108,,,,,1,1,2024-10-28_22h34.19.371,visual,2024.1.5,119.89634958421668,
1_con_totaldot,0.25,1,15,4,274,6,,,,1_con_totaldot_image_67.png,67,167.370527267782,167.6223442163202,,,,,1,1,2024-10-28_22h34.19.371,visual,2024.1.5,119.89634958421668,
4_con_circum,0.25,4,15,5,275,15,,,,4_con_circum_image_49.png,49,167.8038608507253,168.05569142439634,,,,,1,1,2024-10-28_22h34.19.371,visual,2024.1.5,119.89634958421668,
5_con_circum,0.25,5,15,6,276,16,,,,5_con_circum_image_4.png,4,168.23728222572242,168.48977709129684,,,,,1,1,2024-10-28_22h34.19.371,visual,2024.1.5,119.89634958421668,
1_con_singledot,0.25,1,15,7,277,0,,,,1_con_singledot_image_51.png,51,168.6714791006874,168.92235900833037,,,,,1,1,2024-10-28_22h34.19.371,visual,2024.1.5,119.89634958421668,
1_con_circum,0.25,1,15,8,278,12,,,,1_con_circum_image_61.png,61,169.10397335069717,169.35608071634778,,,,,1,1,2024-10-28_22h34.19.371,visual,2024.1.5,119.89634958421668,
3_con_singledot,0.25,3,15,9,279,2,,,,3_con_singledot_image_7.png,7,169.545863609144,169.79644792432663,,,,,1,1,2024-10-28_22h34.19.371,visual,2024.1.5,119.89634958421668,
2_con_circum,0.25,2,15,10,280,13,,,,2_con_circum_image_10.png,10,169.98898240117123,170.23981375839793,,,,,1,1,2024-10-28_22h34.19.371,visual,2024.1.5,119.89634958421668,
4_con_totaldot,0.25,4,15,11,281,9,,,,4_con_totaldot_image_48.png,48,170.42129126770885,170.67262525832047,,,,,1,1,2024-10-28_22h34.19.371,visual,2024.1.5,119.89634958421668,
3_con_totaldot,0.25,3,15,12,282,8,,,,3_con_totaldot_image_10.png,10,170.85417322579303,171.10583879937184,,,,,1,1,2024-10-28_22h34.19.371,visual,2024.1.5,119.89634958421668,
3_con_circum,0.25,3,15,13,283,14,,,,3_con_circum_image_19.png,19,171.28747189275452,171.53959188329753,,,,,1,1,2024-10-28_22h34.19.371,visual,2024.1.5,119.89634958421668,
5_con_totaldot,0.25,5,15,14,284,10,,,,5_con_totaldot_image_33.png,33,171.721076725726,171.97287079935194,,,,,1,1,2024-10-28_22h34.19.371,visual,2024.1.5,119.89634958421668,
5_con_singledot,0.25,5,15,15,285,4,,,,5_con_singledot_image_1.png,1,172.1543529757531,172.40645396638428,,,,,1,1,2024-10-28_22h34.19.371,visual,2024.1.5,119.89634958421668,
6_con_circum,0.25,6,15,16,286,17,,,,6_con_circum_image_5.png,5,172.58805976770816,172.83985367439453,,,,,1,1,2024-10-28_22h34.19.371,visual,2024.1.5,119.89634958421668,
6_con_singledot,0.25,6,15,17,287,5,,,,6_con_singledot_image_43.png,43,173.02141451775094,173.27297267433022,4.wav,173.37258854089305,15.mp4,173.37258854089305,1,1,2024-10-28_22h34.19.371,visual,2024.1.5,119.89634958421668,
4_con_singledot,0.25,4,16,0,288,3,,,,4_con_singledot_image_64.png,64,175.29400610671144,175.5470315914019,,,,,1,1,2024-10-28_22h34.19.371,visual,2024.1.5,119.89634958421668,
3_con_circum,0.25,3,16,1,289,14,,,,3_con_circum_image_29.png,29,175.7387828591396,175.98956167428986,,,,,1,1,2024-10-28_22h34.19.371,visual,2024.1.5,119.89634958421668,
3_con_singledot,0.25,3,16,2,290,2,,,,3_con_singledot_image_26.png,26,176.1712511847494,176.4224686743575,,,,,1,1,2024-10-28_22h34.19.371,visual,2024.1.5,119.89634958421668,
6_con_totaldot,0.25,6,16,3,291,11,,,,6_con_totaldot_image_32.png,32,176.61239410910056,176.86412696632323,,,,,1,1,2024-10-28_22h34.19.371,visual,2024.1.5,119.89634958421668,
5_con_totaldot,0.25,5,16,4,292,10,,,,5_con_totaldot_image_66.png,66,177.04711155975235,177.29681342431576,,,,,1,1,2024-10-28_22h34.19.371,visual,2024.1.5,119.89634958421668,
3_con_totaldot,0.25,3,16,5,293,8,,,,3_con_totaldot_image_65.png,65,177.4806019757874,177.7298913833103,,,,,1,1,2024-10-28_22h34.19.371,visual,2024.1.5,119.89634958421668,
5_con_circum,0.25,5,16,6,294,16,,,,5_con_circum_image_40.png,40,177.91391847571356,178.16322184131712,,,,,1,1,2024-10-28_22h34.19.371,visual,2024.1.5,119.89634958421668,
5_con_singledot,0.25,5,16,7,295,4,,,,5_con_singledot_image_53.png,53,178.34684051768852,178.59715234137838,,,,,1,1,2024-10-28_22h34.19.371,visual,2024.1.5,119.89634958421668,
1_con_circum,0.25,1,16,8,296,12,,,,1_con_circum_image_38.png,38,178.78049664278512,179.02985188328893,,,,,1,1,2024-10-28_22h34.19.371,visual,2024.1.5,119.89634958421668,
6_con_singledot,0.25,6,16,9,297,5,,,,6_con_singledot_image_16.png,16,179.21352222571147,179.46363529934314,,,,,1,1,2024-10-28_22h34.19.371,visual,2024.1.5,119.89634958421668,
1_con_totaldot,0.25,1,16,10,298,6,,,,1_con_totaldot_image_31.png,31,179.6467610177118,179.8970460913726,,,,,1,1,2024-10-28_22h34.19.371,visual,2024.1.5,119.89634958421668,
2_con_singledot,0.25,2,16,11,299,1,,,,2_con_singledot_image_66.png,66,180.0800969757605,180.33054759131045,,,,,1,1,2024-10-28_22h34.19.371,visual,2024.1.5,119.89634958421668,
4_con_circum,0.25,4,16,12,300,15,,,,4_con_circum_image_3.png,3,180.52172102612676,180.7728908413439,,,,,1,1,2024-10-28_22h34.19.371,visual,2024.1.5,119.89634958421668,
1_con_singledot,0.25,1,16,13,301,0,,,,1_con_singledot_image_21.png,21,180.95437426769638,181.2058555913274,,,,,1,1,2024-10-28_22h34.19.371,visual,2024.1.5,119.89634958421668,
2_con_totaldot,0.25,2,16,14,302,7,,,,2_con_totaldot_image_42.png,42,181.38737160069866,181.63923563329735,,,,,1,1,2024-10-28_22h34.19.371,visual,2024.1.5,119.89634958421668,
2_con_circum,0.25,2,16,15,303,13,,,,2_con_circum_image_17.png,17,181.82077297577632,182.0729320912971,,,,,1,1,2024-10-28_22h34.19.371,visual,2024.1.5,119.89634958421668,
6_con_circum,0.25,6,16,16,304,17,,,,6_con_circum_image_43.png,43,182.254408267769,182.50665338336256,,,,,1,1,2024-10-28_22h34.19.371,visual,2024.1.5,119.89634958421668,
4_con_totaldot,0.25,4,16,17,305,9,,,,4_con_totaldot_image_35.png,35,182.68813168476333,182.93979846638393,1.wav,183.03929779096507,14.mp4,183.03929779096507,1,1,2024-10-28_22h34.19.371,visual,2024.1.5,119.89634958421668,
3_con_circum,0.25,3,17,0,306,14,,,,3_con_circum_image_57.png,57,184.9599505237187,185.2136201333371,,,,,1,1,2024-10-28_22h34.19.371,visual,2024.1.5,119.89634958421668,
4_con_circum,0.25,4,17,1,307,15,,,,4_con_circum_image_22.png,22,185.4047384431702,185.65580967440036,,,,,1,1,2024-10-28_22h34.19.371,visual,2024.1.5,119.89634958421668,
4_con_singledot,0.25,4,17,2,308,3,,,,4_con_singledot_image_22.png,22,185.83734201777258,186.08964817434315,,,,,1,1,2024-10-28_22h34.19.371,visual,2024.1.5,119.89634958421668,
6_con_singledot,0.25,6,17,3,309,5,,,,6_con_singledot_image_31.png,31,186.27121055973691,186.5232862583245,,,,,1,1,2024-10-28_22h34.19.371,visual,2024.1.5,119.89634958421668,
6_con_totaldot,0.25,6,17,4,310,11,,,,6_con_totaldot_image_21.png,21,186.70499314272308,186.95583029940025,,,,,1,1,2024-10-28_22h34.19.371,visual,2024.1.5,119.89634958421668,
2_con_circum,0.25,2,17,5,311,13,,,,2_con_circum_image_4.png,4,187.1373453096952,187.38918625829973,,,,,1,1,2024-10-28_22h34.19.371,visual,2024.1.5,119.89634958421668,
6_con_circum,0.25,6,17,6,312,17,,,,6_con_circum_image_40.png,40,187.5706568507943,187.82290513335028,,,,,1,1,2024-10-28_22h34.19.371,visual,2024.1.5,119.89634958421668,
3_con_totaldot,0.25,3,17,7,313,8,,,,3_con_totaldot_image_26.png,26,188.0043690597871,188.2559720083256,,,,,1,1,2024-10-28_22h34.19.371,visual,2024.1.5,119.89634958421668,
1_con_circum,0.25,1,17,8,314,12,,,,1_con_circum_image_32.png,32,188.4459867761121,188.69745300837093,,,,,1,1,2024-10-28_22h34.19.371,visual,2024.1.5,119.89634958421668,
5_con_singledot,0.25,5,17,9,315,4,,,,5_con_singledot_image_47.png,47,188.88052376776466,189.13045634130248,,,,,1,1,2024-10-28_22h34.19.371,visual,2024.1.5,119.89634958421668,
5_con_circum,0.25,5,17,10,316,16,,,,5_con_circum_image_60.png,60,189.31346997569779,189.56359417432685,,,,,1,1,2024-10-28_22h34.19.371,visual,2024.1.5,119.89634958421668,
2_con_totaldot,0.25,2,17,11,317,7,,,,2_con_totaldot_image_58.png,58,189.75531481819925,190.00658009130274,,,,,1,1,2024-10-28_22h34.19.371,visual,2024.1.5,119.89634958421668,
5_con_totaldot,0.25,5,17,12,318,10,,,,5_con_totaldot_image_40.png,40,190.18819493472108,190.43951604933244,,,,,1,1,2024-10-28_22h34.19.371,visual,2024.1.5,119.89634958421668,
3_con_singledot,0.25,3,17,13,319,2,,,,3_con_singledot_image_22.png,22,190.62110739268826,190.8733207583311,,,,,1,1,2024-10-28_22h34.19.371,visual,2024.1.5,119.89634958421668,
1_con_singledot,0.25,1,17,14,320,0,,,,1_con_singledot_image_38.png,38,191.0547863926971,191.3061599663808,,,,,1,1,2024-10-28_22h34.19.371,visual,2024.1.5,119.89634958421668,
2_con_singledot,0.25,2,17,15,321,1,,,,2_con_singledot_image_30.png,30,191.496061359148,191.7466426333296,,,,,1,1,2024-10-28_22h34.19.371,visual,2024.1.5,119.89634958421668,
4_con_totaldot,0.25,4,17,16,322,9,,,,4_con_totaldot_image_11.png,11,191.93041155973913,192.1808750913362,,,,,1,1,2024-10-28_22h34.19.371,visual,2024.1.5,119.89634958421668,
1_con_totaldot,0.25,1,17,17,323,6,,,,1_con_totaldot_image_24.png,24,192.36312560071235,192.6134497163468,5.wav,192.71516629098915,14.mp4,192.71516629098915,1,1,2024-10-28_22h34.19.371,visual,2024.1.5,119.89634958421668,
3_con_totaldot,0.25,3,18,0,324,8,,,,3_con_totaldot_image_40.png,40,194.64499498173825,194.89689234130782,,,,,1,1,2024-10-28_22h34.19.371,visual,2024.1.5,119.89634958421668,
6_con_circum,0.25,6,18,1,325,17,,,,6_con_circum_image_68.png,68,195.08819452611496,195.33741684140404,,,,,1,1,2024-10-28_22h34.19.371,visual,2024.1.5,119.89634958421668,
3_con_singledot,0.25,3,18,2,326,2,,,,3_con_singledot_image_16.png,16,195.53609153449068,195.78973838336532,,,,,1,1,2024-10-28_22h34.19.371,visual,2024.1.5,119.89634958421668,
5_con_circum,0.25,5,18,3,327,16,,,,5_con_circum_image_27.png,27,195.97944894313113,196.23089959133648,,,,,1,1,2024-10-28_22h34.19.371,visual,2024.1.5,119.89634958421668,
2_con_totaldot,0.25,2,18,4,328,7,,,,2_con_totaldot_image_57.png,57,196.41363926776683,196.66510271629085,,,,,1,1,2024-10-28_22h34.19.371,visual,2024.1.5,119.89634958421668,
3_con_circum,0.25,3,18,5,329,14,,,,3_con_circum_image_49.png,49,196.84621085072865,197.09808242436264,,,,,1,1,2024-10-28_22h34.19.371,visual,2024.1.5,119.89634958421668,
4_con_totaldot,0.25,4,18,6,330,9,,,,4_con_totaldot_image_33.png,33,197.2886112341308,197.53978517429204,,,,,1,1,2024-10-28_22h34.19.371,visual,2024.1.5,119.89634958421668,
5_con_singledot,0.25,5,18,7,331,4,,,,5_con_singledot_image_42.png,42,197.7215253097005,197.97328871638746,,,,,1,1,2024-10-28_22h34.19.371,visual,2024.1.5,119.89634958421668,
5_con_totaldot,0.25,5,18,8,332,10,,,,5_con_totaldot_image_6.png,6,198.15469055969731,198.4060576333315,,,,,1,1,2024-10-28_22h34.19.371,visual,2024.1.5,119.89634958421668,
1_con_singledot,0.25,1,18,9,333,0,,,,1_con_singledot_image_26.png,26,198.5876160597894,198.8392516333726,,,,,1,1,2024-10-28_22h34.19.371,visual,2024.1.5,119.89634958421668,
6_con_totaldot,0.25,6,18,10,334,11,,,,6_con_totaldot_image_2.png,2,199.02920269310707,199.2794561743387,,,,,1,1,2024-10-28_22h34.19.371,visual,2024.1.5,119.89634958421668,
4_con_circum,0.25,4,18,11,335,15,,,,4_con_circum_image_19.png,19,199.46393443478735,199.71341334130847,,,,,1,1,2024-10-28_22h34.19.371,visual,2024.1.5,119.89634958421668,
2_con_circum,0.25,2,18,12,336,13,,,,2_con_circum_image_39.png,39,199.9053575681406,200.16383592433993,,,,,1,1,2024-10-28_22h34.19.371,visual,2024.1.5,119.89634958421668,
2_con_singledot,0.25,2,18,13,337,1,,,,2_con_singledot_image_33.png,33,200.38674863432533,200.63931500829057,,,,,1,1,2024-10-28_22h34.19.371,visual,2024.1.5,119.89634958421668,
1_con_totaldot,0.25,1,18,14,338,6,,,,1_con_totaldot_image_15.png,15,200.820809475705,201.07308834138092,,,,,1,1,2024-10-28_22h34.19.371,visual,2024.1.5,119.89634958421668,
6_con_singledot,0.25,6,18,15,339,5,,,,6_con_singledot_image_29.png,29,201.25456268477717,201.50606654932488,,,,,1,1,2024-10-28_22h34.19.371,visual,2024.1.5,119.89634958421668,
4_con_singledot,0.25,4,18,16,340,3,,,,4_con_singledot_image_41.png,41,201.68755655977873,201.9394198832917,,,,,1,1,2024-10-28_22h34.19.371,visual,2024.1.5,119.89634958421668,
1_con_circum,0.25,1,18,17,341,12,,,,1_con_circum_image_56.png,56,202.12967160911066,202.38075838329968,2.wav,202.48254420794547,14.mp4,202.48254420794547,1,1,2024-10-28_22h34.19.371,visual,2024.1.5,119.89634958421668,
5_con_circum,0.25,5,19,0,342,16,,,,5_con_circum_image_67.png,67,204.40567573175065,204.6560975493514,,,,,1,1,2024-10-28_22h34.19.371,visual,2024.1.5,119.89634958421668,
6_con_circum,0.25,6,19,1,343,17,,,,6_con_circum_image_60.png,60,204.84637610913487,205.09706446632043,,,,,1,1,2024-10-28_22h34.19.371,visual,2024.1.5,119.89634958421668,
2_con_singledot,0.25,2,19,2,344,1,,,,2_con_singledot_image_45.png,45,205.28037997577337,205.53013975835637,,,,,1,1,2024-10-28_22h34.19.371,visual,2024.1.5,119.89634958421668,
3_con_circum,0.25,3,19,3,345,14,,,,3_con_circum_image_36.png,36,205.7139188927598,205.9640738833579,,,,,1,1,2024-10-28_22h34.19.371,visual,2024.1.5,119.89634958421668,
1_con_totaldot,0.25,1,19,4,346,6,,,,1_con_totaldot_image_60.png,60,206.14657760071566,206.3969600082957,,,,,1,1,2024-10-28_22h34.19.371,visual,2024.1.5,119.89634958421668,
2_con_circum,0.25,2,19,5,347,13,,,,2_con_circum_image_21.png,21,206.58067114276344,206.8305150912958,,,,,1,1,2024-10-28_22h34.19.371,visual,2024.1.5,119.89634958421668,
6_con_totaldot,0.25,6,19,6,348,11,,,,6_con_totaldot_image_28.png,28,207.01368010076692,207.26384825840358,,,,,1,1,2024-10-28_22h34.19.371,visual,2024.1.5,119.89634958421668,
5_con_singledot,0.25,5,19,7,349,4,,,,5_con_singledot_image_58.png,58,207.4474769757129,207.69682429939274,,,,,1,1,2024-10-28_22h34.19.371,visual,2024.1.5,119.89634958421668,
4_con_circum,0.25,4,19,8,350,15,,,,4_con_circum_image_38.png,38,207.88058739269616,208.13111738335573,,,,,1,1,2024-10-28_22h34.19.371,visual,2024.1.5,119.89634958421668,
2_con_totaldot,0.25,2,19,9,351,7,,,,2_con_totaldot_image_22.png,22,208.31332739277275,208.56352163337868,,,,,1,1,2024-10-28_22h34.19.371,visual,2024.1.5,119.89634958421668,
6_con_singledot,0.25,6,19,10,352,5,,,,6_con_singledot_image_65.png,65,208.747058642772,208.997565008339,,,,,1,1,2024-10-28_22h34.19.371,visual,2024.1.5,119.89634958421668,
3_con_singledot,0.25,3,19,11,353,2,,,,3_con_singledot_image_30.png,30,209.18048714273607,209.43019300837767,,,,,1,1,2024-10-28_22h34.19.371,visual,2024.1.5,119.89634958421668,
5_con_totaldot,0.25,5,19,12,354,10,,,,5_con_totaldot_image_58.png,58,209.61389785071367,209.8642979243188,,,,,1,1,2024-10-28_22h34.19.371,visual,2024.1.5,119.89634958421668,
3_con_totaldot,0.25,3,19,13,355,8,,,,3_con_totaldot_image_36.png,36,210.05537973410682,210.3068003833643,,,,,1,1,2024-10-28_22h34.19.371,visual,2024.1.5,119.89634958421668,
4_con_totaldot,0.25,4,19,14,356,9,,,,4_con_totaldot_image_17.png,17,210.4882830597693,210.7398533833795,,,,,1,1,2024-10-28_22h34.19.371,visual,2024.1.5,119.89634958421668,
1_con_circum,0.25,1,19,15,357,12,,,,1_con_circum_image_41.png,41,210.9209735597018,211.17353788331383,,,,,1,1,2024-10-28_22h34.19.371,visual,2024.1.5,119.89634958421668,
1_con_singledot,0.25,1,19,16,358,0,,,,1_con_singledot_image_4.png,4,211.355039434717,211.60690088336122,,,,,1,1,2024-10-28_22h34.19.371,visual,2024.1.5,119.89634958421668,
4_con_singledot,0.25,4,19,17,359,3,,,,4_con_singledot_image_8.png,8,211.78842585077507,212.03953584131085,2.wav,212.13932137493975,7.mp4,212.13932137493975,1,1,2024-10-28_22h34.19.371,visual,2024.1.5,119.89634958421668,
3_con_singledot,0.25,3,20,0,360,2,,,,3_con_singledot_image_51.png,51,214.06121818969257,214.31380671634105,,,,,1,1,2024-10-28_22h34.19.371,visual,2024.1.5,119.89634958421668,
3_con_totaldot,0.25,3,20,1,361,8,,,,3_con_totaldot_image_63.png,63,214.51371870150322,214.76418284139362,,,,,1,1,2024-10-28_22h34.19.371,visual,2024.1.5,119.89634958421668,
6_con_circum,0.25,6,20,2,362,17,,,,6_con_circum_image_44.png,44,214.95570535919396,215.2066306333174,,,,,1,1,2024-10-28_22h34.19.371,visual,2024.1.5,119.89634958421668,
2_con_singledot,0.25,2,20,3,363,1,,,,2_con_singledot_image_11.png,11,215.38832243471404,215.63948200839803,,,,,1,1,2024-10-28_22h34.19.371,visual,2024.1.5,119.89634958421668,
2_con_totaldot,0.25,2,20,4,364,7,,,,2_con_totaldot_image_17.png,17,215.82094639269633,216.07322463333838,,,,,1,1,2024-10-28_22h34.19.371,visual,2024.1.5,119.89634958421668,
1_con_singledot,0.25,1,20,5,365,0,,,,1_con_singledot_image_59.png,59,216.2549543507397,216.50667146638733,,,,,1,1,2024-10-28_22h34.19.371,visual,2024.1.5,119.89634958421668,
3_con_circum,0.25,3,20,6,366,14,,,,3_con_circum_image_59.png,59,216.69653077617986,216.94791063339215,,,,,1,1,2024-10-28_22h34.19.371,visual,2024.1.5,119.89634958421668,
6_con_singledot,0.25,6,20,7,367,5,,,,6_con_singledot_image_37.png,37,217.13043576779307,217.38014563334872,,,,,1,1,2024-10-28_22h34.19.371,visual,2024.1.5,119.89634958421668,
5_con_totaldot,0.25,5,20,8,368,10,,,,5_con_totaldot_image_9.png,9,217.56412289277648,217.81431004939367,,,,,1,1,2024-10-28_22h34.19.371,visual,2024.1.5,119.89634958421668,
4_con_singledot,0.25,4,20,9,369,3,,,,4_con_singledot_image_3.png,3,217.99667010069822,218.2476421333733,,,,,1,1,2024-10-28_22h34.19.371,visual,2024.1.5,119.89634958421668,
4_con_totaldot,0.25,4,20,10,370,9,,,,4_con_totaldot_image_8.png,8,218.43072630974928,218.6798209244036,,,,,1,1,2024-10-28_22h34.19.371,visual,2024.1.5,119.89634958421668,
4_con_circum,0.25,4,20,11,371,15,,,,4_con_circum_image_14.png,14,218.86422355971297,219.11386734129627,,,,,1,1,2024-10-28_22h34.19.371,visual,2024.1.5,119.89634958421668,
2_con_circum,0.25,2,20,12,372,13,,,,2_con_circum_image_1.png,1,219.29665789273565,219.54700125834205,,,,,1,1,2024-10-28_22h34.19.371,visual,2024.1.5,119.89634958421668,
5_con_circum,0.25,5,20,13,373,16,,,,5_con_circum_image_33.png,33,219.73018680976236,219.9810538833146,,,,,1,1,2024-10-28_22h34.19.371,visual,2024.1.5,119.89634958421668,
6_con_totaldot,0.25,6,20,14,374,11,,,,6_con_totaldot_image_38.png,38,220.16416805968618,220.41416600834344,,,,,1,1,2024-10-28_22h34.19.371,visual,2024.1.5,119.89634958421668,
1_con_totaldot,0.25,1,20,15,375,6,,,,1_con_totaldot_image_64.png,64,220.59672514277042,220.84770704932743,,,,,1,1,2024-10-28_22h34.19.371,visual,2024.1.5,119.89634958421668,
5_con_singledot,0.25,5,20,16,376,4,,,,5_con_singledot_image_66.png,66,221.0308341847034,221.28071342430775,,,,,1,1,2024-10-28_22h34.19.371,visual,2024.1.5,119.89634958421668,
1_con_circum,0.25,1,20,17,377,12,,,,1_con_circum_image_42.png,42,221.4639094756916,221.7141145083471,3.wav,221.81471916590817,16.mp4,221.81471916590817,1,1,2024-10-28_22h34.19.371,visual,2024.1.5,119.89634958421668,
4_con_totaldot,0.25,4,21,0,378,9,,,,4_con_totaldot_image_9.png,9,223.7228841813514,223.97415875840233,,,,,1,1,2024-10-28_22h34.19.371,visual,2024.1.5,119.89634958421668,
5_con_totaldot,0.25,5,21,1,379,10,,,,5_con_totaldot_image_45.png,45,224.16660219311015,224.42288296633632,,,,,1,1,2024-10-28_22h34.19.371,visual,2024.1.5,119.89634958421668,
2_con_singledot,0.25,2,21,2,380,1,,,,2_con_singledot_image_58.png,58,224.61271735917543,224.86459738329285,,,,,1,1,2024-10-28_22h34.19.371,visual,2024.1.5,119.89634958421668,
6_con_singledot,0.25,6,21,3,381,5,,,,6_con_singledot_image_21.png,21,225.04729539270045,225.2999057163135,,,,,1,1,2024-10-28_22h34.19.371,visual,2024.1.5,119.89634958421668,
1_con_circum,0.25,1,21,4,382,12,,,,1_con_circum_image_25.png,25,225.49069165108958,225.74031225835205,,,,,1,1,2024-10-28_22h34.19.371,visual,2024.1.5,119.89634958421668,
2_con_circum,0.25,2,21,5,383,13,,,,2_con_circum_image_23.png,23,225.92196164277846,226.17334829933242,,,,,1,1,2024-10-28_22h34.19.371,visual,2024.1.5,119.89634958421668,
2_con_totaldot,0.25,2,21,6,384,7,,,,2_con_totaldot_image_15.png,15,226.36309906813548,226.61458392440107,,,,,1,1,2024-10-28_22h34.19.371,visual,2024.1.5,119.89634958421668,
6_con_circum,0.25,6,21,7,385,17,,,,6_con_circum_image_9.png,9,226.79767330978063,227.04793109138262,,,,,1,1,2024-10-28_22h34.19.371,visual,2024.1.5,119.89634958421668,
1_con_totaldot,0.25,1,21,8,386,6,,,,1_con_totaldot_image_20.png,20,227.23886881811777,227.48958913328823,,,,,1,1,2024-10-28_22h34.19.371,visual,2024.1.5,119.89634958421668,
4_con_circum,0.25,4,21,9,387,15,,,,4_con_circum_image_64.png,64,227.6711334757041,227.92893517435294,,,,,1,1,2024-10-28_22h34.19.371,visual,2024.1.5,119.89634958421668,
6_con_totaldot,0.25,6,21,10,388,11,,,,6_con_totaldot_image_1.png,1,228.1142659347737,228.36369946632766,,,,,1,1,2024-10-28_22h34.19.371,visual,2024.1.5,119.89634958421668,
5_con_circum,0.25,5,21,11,389,16,,,,5_con_circum_image_35.png,35,228.54801505976354,228.79712167439283,,,,,1,1,2024-10-28_22h34.19.371,visual,2024.1.5,119.89634958421668,
1_con_singledot,0.25,1,21,12,390,0,,,,1_con_singledot_image_39.png,39,228.98924890110501,229.24032963333883,,,,,1,1,2024-10-28_22h34.19.371,visual,2024.1.5,119.89634958421668,
3_con_singledot,0.25,3,21,13,391,2,,,,3_con_singledot_image_60.png,60,229.4217948927311,229.6736703413655,,,,,1,1,2024-10-28_22h34.19.371,visual,2024.1.5,119.89634958421668,
4_con_singledot,0.25,4,21,14,392,3,,,,4_con_singledot_image_37.png,37,229.85515947579404,230.10747300832298,,,,,1,1,2024-10-28_22h34.19.371,visual,2024.1.5,119.89634958421668,
3_con_circum,0.25,3,21,15,393,14,,,,3_con_circum_image_26.png,26,230.28949522573964,230.54041909134247,,,,,1,1,2024-10-28_22h34.19.371,visual,2024.1.5,119.89634958421668,
5_con_singledot,0.25,5,21,16,394,4,,,,5_con_singledot_image_34.png,34,230.72199122570453,230.9735582993482,,,,,1,1,2024-10-28_22h34.19.371,visual,2024.1.5,119.89634958421668,
3_con_totaldot,0.25,3,21,17,395,8,,,,3_con_totaldot_image_1.png,1,231.1551731847925,231.40707959140417,4.wav,231.50671620795038,5.mp4,231.50671620795038,1,1,2024-10-28_22h34.19.371,visual,2024.1.5,119.89634958421668,
5_con_singledot,0.25,5,22,0,396,4,,,,5_con_singledot_image_21.png,21,233.40840393134857,233.66381654933792,,,,,1,1,2024-10-28_22h34.19.371,visual,2024.1.5,119.89634958421668,
2_con_totaldot,0.25,2,22,1,397,7,,,,2_con_totaldot_image_34.png,34,233.85575181812746,234.10698679938213,,,,,1,1,2024-10-28_22h34.19.371,visual,2024.1.5,119.89634958421668,
1_con_totaldot,0.25,1,22,2,398,6,,,,1_con_totaldot_image_51.png,51,234.28857485074548,234.54005384129704,,,,,1,1,2024-10-28_22h34.19.371,visual,2024.1.5,119.89634958421668,
6_con_singledot,0.25,6,22,3,399,5,,,,6_con_singledot_image_49.png,49,234.72223305979276,234.97410779934143,,,,,1,1,2024-10-28_22h34.19.371,visual,2024.1.5,119.89634958421668,
3_con_totaldot,0.25,3,22,4,400,8,,,,3_con_totaldot_image_23.png,23,235.18939709330442,235.442296133365,,,,,1,1,2024-10-28_22h34.19.371,visual,2024.1.5,119.89634958421668,
6_con_circum,0.25,6,22,5,401,17,,,,6_con_circum_image_14.png,14,235.64132336755281,235.89712654937756,,,,,1,1,2024-10-28_22h34.19.371,visual,2024.1.5,119.89634958421668,
3_con_circum,0.25,3,22,6,402,14,,,,3_con_circum_image_20.png,20,236.08084618472492,236.3307857162901,,,,,1,1,2024-10-28_22h34.19.371,visual,2024.1.5,119.89634958421668,
2_con_circum,0.25,2,22,7,403,13,,,,2_con_circum_image_55.png,55,236.51362797569016,236.76372434139483,,,,,1,1,2024-10-28_22h34.19.371,visual,2024.1.5,119.89634958421668,
4_con_totaldot,0.25,4,22,8,404,9,,,,4_con_totaldot_image_14.png,14,236.94763647576326,237.19708384129916,,,,,1,1,2024-10-28_22h34.19.371,visual,2024.1.5,119.89634958421668,
4_con_singledot,0.25,4,22,9,405,3,,,,4_con_singledot_image_42.png,42,237.38129226779563,237.63389159132493,,,,,1,1,2024-10-28_22h34.19.371,visual,2024.1.5,119.89634958421668,
5_con_totaldot,0.25,5,22,10,406,10,,,,5_con_totaldot_image_43.png,43,237.83218532656318,238.09046709128887,,,,,1,1,2024-10-28_22h34.19.371,visual,2024.1.5,119.89634958421668,
1_con_singledot,0.25,1,22,11,407,0,,,,1_con_singledot_image_41.png,41,238.29067949259186,238.54014042437774,,,,,1,1,2024-10-28_22h34.19.371,visual,2024.1.5,119.89634958421668,
6_con_totaldot,0.25,6,22,12,408,11,,,,6_con_totaldot_image_23.png,23,238.73009656820213,238.98089275833917,,,,,1,1,2024-10-28_22h34.19.371,visual,2024.1.5,119.89634958421668,
1_con_circum,0.25,1,22,13,409,12,,,,1_con_circum_image_10.png,10,239.16403380976988,239.41391671634045,,,,,1,1,2024-10-28_22h34.19.371,visual,2024.1.5,119.89634958421668,
3_con_singledot,0.25,3,22,14,410,2,,,,3_con_singledot_image_12.png,12,239.59686730974352,239.84725534134776,,,,,1,1,2024-10-28_22h34.19.371,visual,2024.1.5,119.89634958421668,
5_con_circum,0.25,5,22,15,411,16,,,,5_con_circum_image_64.png,64,240.03111976778598,240.28084254938875,,,,,1,1,2024-10-28_22h34.19.371,visual,2024.1.5,119.89634958421668,
2_con_singledot,0.25,2,22,16,412,1,,,,2_con_singledot_image_10.png,10,240.46358110078143,240.71407446636584,,,,,1,1,2024-10-28_22h34.19.371,visual,2024.1.5,119.89634958421668,
4_con_circum,0.25,4,22,17,413,15,,,,4_con_circum_image_69.png,69,240.89704351776743,241.14783542439108,2.wav,241.24938512500376,16.mp4,241.24938512500376,1,1,2024-10-28_22h34.19.371,visual,2024.1.5,119.89634958421668,
4_con_singledot,0.25,4,23,0,414,3,,,,4_con_singledot_image_63.png,63,243.19770077374994,243.4474026333657,,,,,1,1,2024-10-28_22h34.19.371,visual,2024.1.5,119.89634958421668,
1_con_totaldot,0.25,1,23,1,415,6,,,,1_con_totaldot_image_30.png,30,243.63915302612585,243.88975729931843,,,,,1,1,2024-10-28_22h34.19.371,visual,2024.1.5,119.89634958421668,
4_con_totaldot,0.25,4,23,2,416,9,,,,4_con_totaldot_image_41.png,41,244.07124110076109,244.32355092429788,,,,,1,1,2024-10-28_22h34.19.371,visual,2024.1.5,119.89634958421668,
5_con_circum,0.25,5,23,3,417,16,,,,5_con_circum_image_23.png,23,244.51329177614534,244.76432467437115,,,,,1,1,2024-10-28_22h34.19.371,visual,2024.1.5,119.89634958421668,
5_con_totaldot,0.25,5,23,4,418,10,,,,5_con_totaldot_image_8.png,8,244.9471350176958,245.19870213336543,,,,,1,1,2024-10-28_22h34.19.371,visual,2024.1.5,119.89634958421668,
3_con_totaldot,0.25,3,23,5,419,8,,,,3_con_totaldot_image_62.png,62,245.3892750261235,245.6407030083821,,,,,1,1,2024-10-28_22h34.19.371,visual,2024.1.5,119.89634958421668,
3_con_singledot,0.25,3,23,6,420,2,,,,3_con_singledot_image_18.png,18,245.82225114279424,246.07351704930187,,,,,1,1,2024-10-28_22h34.19.371,visual,2024.1.5,119.89634958421668,
6_con_totaldot,0.25,6,23,7,421,11,,,,6_con_totaldot_image_25.png,25,246.25435814270747,246.50688363331136,,,,,1,1,2024-10-28_22h34.19.371,visual,2024.1.5,119.89634958421668,
3_con_circum,0.25,3,23,8,422,14,,,,3_con_circum_image_61.png,61,246.68840726776978,246.9408472583047,,,,,1,1,2024-10-28_22h34.19.371,visual,2024.1.5,119.89634958421668,
4_con_circum,0.25,4,23,9,423,15,,,,4_con_circum_image_35.png,35,247.13108369308756,247.38091921630547,,,,,1,1,2024-10-28_22h34.19.371,visual,2024.1.5,119.89634958421668,
6_con_circum,0.25,6,23,10,424,17,,,,6_con_circum_image_45.png,45,247.56353568469638,247.81389909131684,,,,,1,1,2024-10-28_22h34.19.371,visual,2024.1.5,119.89634958421668,
2_con_circum,0.25,2,23,11,425,13,,,,2_con_circum_image_46.png,46,247.99691705973817,248.24804550838888,,,,,1,1,2024-10-28_22h34.19.371,visual,2024.1.5,119.89634958421668,
2_con_totaldot,0.25,2,23,12,426,7,,,,2_con_totaldot_image_47.png,47,248.43114785079376,248.68110013332915,,,,,1,1,2024-10-28_22h34.19.371,visual,2024.1.5,119.89634958421668,
6_con_singledot,0.25,6,23,13,427,5,,,,6_con_singledot_image_11.png,11,248.88060474251395,249.13065838335314,,,,,1,1,2024-10-28_22h34.19.371,visual,2024.1.5,119.89634958421668,
1_con_circum,0.25,1,23,14,428,12,,,,1_con_circum_image_58.png,58,249.31442876774815,249.56435450828866,,,,,1,1,2024-10-28_22h34.19.371,visual,2024.1.5,119.89634958421668,
1_con_singledot,0.25,1,23,15,429,0,,,,1_con_singledot_image_16.png,16,249.74699247579554,249.99791096638654,,,,,1,1,2024-10-28_22h34.19.371,visual,2024.1.5,119.89634958421668,
5_con_singledot,0.25,5,23,16,430,4,,,,5_con_singledot_image_18.png,18,250.1804100597277,250.4311082583037,,,,,1,1,2024-10-28_22h34.19.371,visual,2024.1.5,119.89634958421668,
2_con_singledot,0.25,2,23,17,431,1,,,,2_con_singledot_image_34.png,34,250.6141549347434,250.864326424303,2.wav,250.96578970795963,3.mp4,250.96578970795963,1,1,2024-10-28_22h34.19.371,visual,2024.1.5,119.89634958421668,
2_con_circum,0.25,2,24,0,432,13,,,,2_con_circum_image_43.png,43,252.87415493970036,253.12323484137886,,,,,1,1,2024-10-28_22h34.19.371,visual,2024.1.5,119.89634958421668,
6_con_circum,0.25,6,24,1,433,17,,,,6_con_circum_image_1.png,1,253.31375144313787,253.56610438331262,,,,,1,1,2024-10-28_22h34.19.371,visual,2024.1.5,119.89634958421668,
3_con_circum,0.25,3,24,2,434,14,,,,3_con_circum_image_64.png,64,253.75573706809664,254.00689150834222,,,,,1,1,2024-10-28_22h34.19.371,visual,2024.1.5,119.89634958421668,
4_con_circum,0.25,4,24,3,435,15,,,,4_con_circum_image_70.png,70,254.18842443472238,254.44020404933252,,,,,1,1,2024-10-28_22h34.19.371,visual,2024.1.5,119.89634958421668,
5_con_circum,0.25,5,24,4,436,16,,,,5_con_circum_image_38.png,38,254.6216939347563,254.8731696333154,,,,,1,1,2024-10-28_22h34.19.371,visual,2024.1.5,119.89634958421668,
1_con_circum,0.25,1,24,5,437,12,,,,1_con_circum_image_14.png,14,255.06298502612626,255.32403354939305,,,,,1,1,2024-10-28_22h34.19.371,visual,2024.1.5,119.89634958421668,
5_con_singledot,0.25,5,24,6,438,4,,,,5_con_singledot_image_43.png,43,255.5307389179361,255.7810610493063,,,,,1,1,2024-10-28_22h34.19.371,visual,2024.1.5,119.89634958421668,
4_con_singledot,0.25,4,24,7,439,3,,,,4_con_singledot_image_66.png,66,255.96460701778994,256.21397188339614,,,,,1,1,2024-10-28_22h34.19.371,visual,2024.1.5,119.89634958421668,
2_con_totaldot,0.25,2,24,8,440,7,,,,2_con_totaldot_image_49.png,49,256.39819205969104,256.64744017435004,,,,,1,1,2024-10-28_22h34.19.371,visual,2024.1.5,119.89634958421668,
1_con_totaldot,0.25,1,24,9,441,6,,,,1_con_totaldot_image_65.png,65,256.83871015111214,257.0907783413888,,,,,1,1,2024-10-28_22h34.19.371,visual,2024.1.5,119.89634958421668,
1_con_singledot,0.25,1,24,10,442,0,,,,1_con_singledot_image_48.png,48,257.27255139276383,257.5233993834001,,,,,1,1,2024-10-28_22h34.19.371,visual,2024.1.5,119.89634958421668,
5_con_totaldot,0.25,5,24,11,443,10,,,,5_con_totaldot_image_46.png,46,257.7050162257859,257.9565985083929,,,,,1,1,2024-10-28_22h34.19.371,visual,2024.1.5,119.89634958421668,
6_con_totaldot,0.25,6,24,12,444,11,,,,6_con_totaldot_image_4.png,4,258.14657210916045,258.39806171633535,,,,,1,1,2024-10-28_22h34.19.371,visual,2024.1.5,119.89634958421668,
3_con_singledot,0.25,3,24,13,445,2,,,,3_con_singledot_image_61.png,61,258.58914544313444,258.84026988338445,,,,,1,1,2024-10-28_22h34.19.371,visual,2024.1.5,119.89634958421668,
3_con_totaldot,0.25,3,24,14,446,8,,,,3_con_totaldot_image_59.png,59,259.0218678507721,259.27319300837115,,,,,1,1,2024-10-28_22h34.19.371,visual,2024.1.5,119.89634958421668,
6_con_singledot,0.25,6,24,15,447,5,,,,6_con_singledot_image_19.png,19,259.47127424257343,259.7239893833059,,,,,1,1,2024-10-28_22h34.19.371,visual,2024.1.5,119.89634958421668,
2_con_singledot,0.25,2,24,16,448,1,,,,2_con_singledot_image_12.png,12,259.9049591847928,260.156677008362,,,,,1,1,2024-10-28_22h34.19.371,visual,2024.1.5,119.89634958421668,
4_con_totaldot,0.25,4,24,17,449,9,,,,4_con_totaldot_image_60.png,60,260.3465353591251,260.59778304932405,1.wav,260.6996733749984,13.mp4,260.6996733749984,1,1,2024-10-28_22h34.19.371,visual,2024.1.5,119.89634958421668,
5_con_singledot,0.25,5,25,0,450,4,,,,5_con_singledot_image_23.png,23,262.60775168976977,262.85723567438544,,,,,1,1,2024-10-28_22h34.19.371,visual,2024.1.5,119.89634958421668,
6_con_singledot,0.25,6,25,1,451,5,,,,6_con_singledot_image_2.png,2,263.0474163591512,263.29743854933184,,,,,1,1,2024-10-28_22h34.19.371,visual,2024.1.5,119.89634958421668,
3_con_totaldot,0.25,3,25,2,452,8,,,,3_con_totaldot_image_37.png,37,263.4809667257126,263.73141804930054,,,,,1,1,2024-10-28_22h34.19.371,visual,2024.1.5,119.89634958421668,
2_con_circum,0.25,2,25,3,453,13,,,,2_con_circum_image_56.png,56,263.91466910075394,264.1640421333606,,,,,1,1,2024-10-28_22h34.19.371,visual,2024.1.5,119.89634958421668,
4_con_circum,0.25,4,25,4,454,15,,,,4_con_circum_image_63.png,63,264.34791776780037,264.59843325834953,,,,,1,1,2024-10-28_22h34.19.371,visual,2024.1.5,119.89634958421668,
4_con_totaldot,0.25,4,25,5,455,9,,,,4_con_totaldot_image_34.png,34,264.7814954347908,265.03109425829024,,,,,1,1,2024-10-28_22h34.19.371,visual,2024.1.5,119.89634958421668,
2_con_singledot,0.25,2,25,6,456,1,,,,2_con_singledot_image_41.png,41,265.2137986847432,265.46420392439467,,,,,1,1,2024-10-28_22h34.19.371,visual,2024.1.5,119.89634958421668,
1_con_totaldot,0.25,1,25,7,457,6,,,,1_con_totaldot_image_69.png,69,265.65542106815843,265.9073858833755,,,,,1,1,2024-10-28_22h34.19.371,visual,2024.1.5,119.89634958421668,
6_con_totaldot,0.25,6,25,8,458,11,,,,6_con_totaldot_image_9.png,9,266.08891389272173,266.33991363329113,,,,,1,1,2024-10-28_22h34.19.371,visual,2024.1.5,119.89634958421668,
1_con_circum,0.25,1,25,9,459,12,,,,1_con_circum_image_11.png,11,266.5215948507888,266.7736985913827,,,,,1,1,2024-10-28_22h34.19.371,visual,2024.1.5,119.89634958421668,
6_con_circum,0.25,6,25,10,460,17,,,,6_con_circum_image_48.png,48,266.95528030975254,267.2070182583877,,,,,1,1,2024-10-28_22h34.19.371,visual,2024.1.5,119.89634958421668,
3_con_singledot,0.25,3,25,11,461,2,,,,3_con_singledot_image_63.png,63,267.38844051780177,267.6398831333383,,,,,1,1,2024-10-28_22h34.19.371,visual,2024.1.5,119.89634958421668,
1_con_singledot,0.25,1,25,12,462,0,,,,1_con_singledot_image_53.png,53,267.8215228097746,268.0737790083396,,,,,1,1,2024-10-28_22h34.19.371,visual,2024.1.5,119.89634958421668,
5_con_circum,0.25,5,25,13,463,16,,,,5_con_circum_image_41.png,41,268.2551771007478,268.50698088329517,,,,,1,1,2024-10-28_22h34.19.371,visual,2024.1.5,119.89634958421668,
4_con_singledot,0.25,4,25,14,464,3,,,,4_con_singledot_image_51.png,51,268.68860751772297,268.94032429937505,,,,,1,1,2024-10-28_22h34.19.371,visual,2024.1.5,119.89634958421668,
2_con_totaldot,0.25,2,25,15,465,7,,,,2_con_totaldot_image_32.png,32,269.12187714278696,269.3737009663484,,,,,1,1,2024-10-28_22h34.19.371,visual,2024.1.5,119.89634958421668,
5_con_totaldot,0.25,5,25,16,466,10,,,,5_con_totaldot_image_52.png,52,269.5551793927792,269.8070833413978,,,,,1,1,2024-10-28_22h34.19.371,visual,2024.1.5,119.89634958421668,
3_con_circum,0.25,3,25,17,467,14,,,,3_con_circum_image_2.png,2,269.99688360918077,270.24823700833366,3.wav,270.34902645798866,11.mp4,270.34902645798866,1,1,2024-10-28_22h34.19.371,visual,2024.1.5,119.89634958421668,
3_con_totaldot,0.25,3,26,0,468,8,,,,3_con_totaldot_image_28.png,28,272.2476390153635,272.49750834131845,,,,,1,1,2024-10-28_22h34.19.371,visual,2024.1.5,119.89634958421668,
5_con_circum,0.25,5,26,1,469,16,,,,5_con_circum_image_46.png,46,272.68922840113515,272.93997938336105,,,,,1,1,2024-10-28_22h34.19.371,visual,2024.1.5,119.89634958421668,
4_con_singledot,0.25,4,26,2,470,3,,,,4_con_singledot_image_36.png,36,273.12147714276796,273.37327404936076,,,,,1,1,2024-10-28_22h34.19.371,visual,2024.1.5,119.89634958421668,
3_con_circum,0.25,3,26,3,471,14,,,,3_con_circum_image_50.png,50,273.5547975176945,273.80708154930034,,,,,1,1,2024-10-28_22h34.19.371,visual,2024.1.5,119.89634958421668,
6_con_totaldot,0.25,6,26,4,472,11,,,,6_con_totaldot_image_5.png,5,273.9886365177575,274.23992871631634,,,,,1,1,2024-10-28_22h34.19.371,visual,2024.1.5,119.89634958421668,
4_con_totaldot,0.25,4,26,5,473,9,,,,4_con_totaldot_image_56.png,56,274.42139739273114,274.67372225829166,,,,,1,1,2024-10-28_22h34.19.371,visual,2024.1.5,119.89634958421668,
5_con_singledot,0.25,5,26,6,474,4,,,,5_con_singledot_image_14.png,14,274.8730024011689,275.1240593413706,,,,,1,1,2024-10-28_22h34.19.371,visual,2024.1.5,119.89634958421668,
1_con_singledot,0.25,1,26,7,475,0,,,,1_con_singledot_image_23.png,23,275.3055914347991,275.5573478833423,,,,,1,1,2024-10-28_22h34.19.371,visual,2024.1.5,119.89634958421668,
5_con_totaldot,0.25,5,26,8,476,10,,,,5_con_totaldot_image_65.png,65,275.73894222578963,275.99005696630337,,,,,1,1,2024-10-28_22h34.19.371,visual,2024.1.5,119.89634958421668,
6_con_circum,0.25,6,26,9,477,17,,,,6_con_circum_image_47.png,47,276.17154201769733,276.4243035493302,,,,,1,1,2024-10-28_22h34.19.371,visual,2024.1.5,119.89634958421668,
2_con_circum,0.25,2,26,10,478,13,,,,2_con_circum_image_57.png,57,276.60583622576667,276.8571102993912,,,,,1,1,2024-10-28_22h34.19.371,visual,2024.1.5,119.89634958421668,
2_con_totaldot,0.25,2,26,11,479,7,,,,2_con_totaldot_image_50.png,50,277.03867014274,277.2908918833011,,,,,1,1,2024-10-28_22h34.19.371,visual,2024.1.5,119.89634958421668,
6_con_singledot,0.25,6,26,12,480,5,,,,6_con_singledot_image_17.png,17,277.47436297577804,277.7238126743934,,,,,1,1,2024-10-28_22h34.19.371,visual,2024.1.5,119.89634958421668,
4_con_circum,0.25,4,26,13,481,15,,,,4_con_circum_image_32.png,32,277.90536447577176,278.15724496635374,,,,,1,1,2024-10-28_22h34.19.371,visual,2024.1.5,119.89634958421668,
1_con_circum,0.25,1,26,14,482,12,,,,1_con_circum_image_30.png,30,278.34715894315156,278.5978856333415,,,,,1,1,2024-10-28_22h34.19.371,visual,2024.1.5,119.89634958421668,
3_con_singledot,0.25,3,26,15,483,2,,,,3_con_singledot_image_64.png,64,278.78064810074864,279.03131829934426,,,,,1,1,2024-10-28_22h34.19.371,visual,2024.1.5,119.89634958421668,
1_con_totaldot,0.25,1,26,16,484,6,,,,1_con_totaldot_image_61.png,61,279.2225389431347,279.47380842430283,,,,,1,1,2024-10-28_22h34.19.371,visual,2024.1.5,119.89634958421668,
2_con_singledot,0.25,2,26,17,485,1,,,,2_con_singledot_image_27.png,27,279.6552056427812,279.9071118413587,1.wav,280.0066480409587,4.mp4,280.0066480409587,1,1,2024-10-28_22h34.19.371,visual,2024.1.5,119.89634958421668,
4_con_singledot,0.25,4,27,0,486,3,,,,4_con_singledot_image_65.png,65,281.90140051539055,282.15710325828985,,,,,1,1,2024-10-28_22h34.19.371,visual,2024.1.5,119.89634958421668,
3_con_totaldot,0.25,3,27,1,487,8,,,,3_con_totaldot_image_54.png,54,282.3472633591969,282.59792038331506,,,,,1,1,2024-10-28_22h34.19.371,visual,2024.1.5,119.89634958421668,
1_con_totaldot,0.25,1,27,2,488,6,,,,1_con_totaldot_image_57.png,57,282.7809294347884,283.03131288335425,,,,,1,1,2024-10-28_22h34.19.371,visual,2024.1.5,119.89634958421668,
6_con_totaldot,0.25,6,27,3,489,11,,,,6_con_totaldot_image_45.png,45,283.2147428097436,283.46497534132794,,,,,1,1,2024-10-28_22h34.19.371,visual,2024.1.5,119.89634958421668,
1_con_singledot,0.25,1,27,4,490,0,,,,1_con_singledot_image_66.png,66,283.6559828181867,283.90673825830453,,,,,1,1,2024-10-28_22h34.19.371,visual,2024.1.5,119.89634958421668,
5_con_circum,0.25,5,27,5,491,16,,,,5_con_circum_image_13.png,13,284.096128151135,284.347462966328,,,,,1,1,2024-10-28_22h34.19.371,visual,2024.1.5,119.89634958421668,
2_con_singledot,0.25,2,27,6,492,1,,,,2_con_singledot_image_48.png,48,284.5312228927854,284.78084646629867,,,,,1,1,2024-10-28_22h34.19.371,visual,2024.1.5,119.89634958421668,
5_con_singledot,0.25,5,27,7,493,4,,,,5_con_singledot_image_57.png,57,284.9639032257022,285.21504554931306,,,,,1,1,2024-10-28_22h34.19.371,visual,2024.1.5,119.89634958421668,
4_con_circum,0.25,4,27,8,494,15,,,,4_con_circum_image_54.png,54,285.4141964514973,285.66427029935875,,,,,1,1,2024-10-28_22h34.19.371,visual,2024.1.5,119.89634958421668,
4_con_totaldot,0.25,4,27,9,495,9,,,,4_con_totaldot_image_64.png,64,285.84773605978114,286.0978567163576,,,,,1,1,2024-10-28_22h34.19.371,visual,2024.1.5,119.89634958421668,
5_con_totaldot,0.25,5,27,10,496,10,,,,5_con_totaldot_image_10.png,10,286.2806325177429,286.53085821632993,,,,,1,1,2024-10-28_22h34.19.371,visual,2024.1.5,119.89634958421668,
6_con_singledot,0.25,6,27,11,497,5,,,,6_con_singledot_image_54.png,54,286.7147890596883,286.964735258359,,,,,1,1,2024-10-28_22h34.19.371,visual,2024.1.5,119.89634958421668,
2_con_circum,0.25,2,27,12,498,13,,,,2_con_circum_image_24.png,24,287.1555561511428,287.406696924346,,,,,1,1,2024-10-28_22h34.19.371,visual,2024.1.5,119.89634958421668,
2_con_totaldot,0.25,2,27,13,499,7,,,,2_con_totaldot_image_28.png,28,287.5887142678024,287.8404717583791,,,,,1,1,2024-10-28_22h34.19.371,visual,2024.1.5,119.89634958421668,
3_con_singledot,0.25,3,27,14,500,2,,,,3_con_singledot_image_46.png,46,288.02210205977315,288.27389054930535,,,,,1,1,2024-10-28_22h34.19.371,visual,2024.1.5,119.89634958421668,
6_con_circum,0.25,6,27,15,501,17,,,,6_con_circum_image_2.png,2,288.4636394841014,288.71503096631494,,,,,1,1,2024-10-28_22h34.19.371,visual,2024.1.5,119.89634958421668,
1_con_circum,0.25,1,27,16,502,12,,,,1_con_circum_image_63.png,63,288.89719476769676,289.14754484138683,,,,,1,1,2024-10-28_22h34.19.371,visual,2024.1.5,119.89634958421668,
3_con_circum,0.25,3,27,17,503,14,,,,3_con_circum_image_52.png,52,289.339825151104,289.59009534131036,3.wav,289.68976308288984,1.mp4,289.68976308288984,1,1,2024-10-28_22h34.19.371,visual,2024.1.5,119.89634958421668,
5_con_singledot,0.25,5,28,0,504,4,,,,5_con_singledot_image_37.png,37,291.591343189741,291.8405972163775,,,,,1,1,2024-10-28_22h34.19.371,visual,2024.1.5,119.89634958421668,
1_con_totaldot,0.25,1,28,1,505,6,,,,1_con_totaldot_image_70.png,70,292.03875795153436,292.29079046634723,,,,,1,1,2024-10-28_22h34.19.371,visual,2024.1.5,119.89634958421668,
5_con_circum,0.25,5,28,2,506,16,,,,5_con_circum_image_70.png,70,292.4724378097802,292.7239813833614,,,,,1,1,2024-10-28_22h34.19.371,visual,2024.1.5,119.89634958421668,
1_con_circum,0.25,1,28,3,507,12,,,,1_con_circum_image_48.png,48,292.91390740111234,293.16456221636616,,,,,1,1,2024-10-28_22h34.19.371,visual,2024.1.5,119.89634958421668,
4_con_circum,0.25,4,28,4,508,15,,,,4_con_circum_image_58.png,58,293.34781418470664,293.5975620493875,,,,,1,1,2024-10-28_22h34.19.371,visual,2024.1.5,119.89634958421668,
6_con_singledot,0.25,6,28,5,509,5,,,,6_con_singledot_image_52.png,52,293.78182226778006,294.0308830083697,,,,,1,1,2024-10-28_22h34.19.371,visual,2024.1.5,119.89634958421668,
6_con_circum,0.25,6,28,6,510,17,,,,6_con_circum_image_15.png,15,294.2147442677291,294.4642657163669,,,,,1,1,2024-10-28_22h34.19.371,visual,2024.1.5,119.89634958421668,
3_con_circum,0.25,3,28,7,511,14,,,,3_con_circum_image_17.png,17,294.6475226006936,294.89794100831494,,,,,1,1,2024-10-28_22h34.19.371,visual,2024.1.5,119.89634958421668,
2_con_circum,0.25,2,28,8,512,13,,,,2_con_circum_image_30.png,30,295.08108114274216,295.3315327582997,,,,,1,1,2024-10-28_22h34.19.371,visual,2024.1.5,119.89634958421668,
1_con_singledot,0.25,1,28,9,513,0,,,,1_con_singledot_image_67.png,67,295.51415755969936,295.7647393413237,,,,,1,1,2024-10-28_22h34.19.371,visual,2024.1.5,119.89634958421668,
3_con_singledot,0.25,3,28,10,514,2,,,,3_con_singledot_image_28.png,28,295.948331309692,296.19853459134464,,,,,1,1,2024-10-28_22h34.19.371,visual,2024.1.5,119.89634958421668,
4_con_totaldot,0.25,4,28,11,515,9,,,,4_con_totaldot_image_45.png,45,296.3811418507015,296.6319940494024,,,,,1,1,2024-10-28_22h34.19.371,visual,2024.1.5,119.89634958421668,
2_con_singledot,0.25,2,28,12,516,1,,,,2_con_singledot_image_63.png,63,296.81417385078964,297.064339883381,,,,,1,1,2024-10-28_22h34.19.371,visual,2024.1.5,119.89634958421668,
5_con_totaldot,0.25,5,28,13,517,10,,,,5_con_totaldot_image_18.png,18,297.256051443133,297.50752917431527,,,,,1,1,2024-10-28_22h34.19.371,visual,2024.1.5,119.89634958421668,
6_con_totaldot,0.25,6,28,14,518,11,,,,6_con_totaldot_image_39.png,39,297.6974109841627,297.9484517583507,,,,,1,1,2024-10-28_22h34.19.371,visual,2024.1.5,119.89634958421668,
4_con_singledot,0.25,4,28,15,519,3,,,,4_con_singledot_image_47.png,47,298.1320897676982,298.38145892437313,,,,,1,1,2024-10-28_22h34.19.371,visual,2024.1.5,119.89634958421668,
3_con_totaldot,0.25,3,28,16,520,8,,,,3_con_totaldot_image_56.png,56,298.5640704347519,298.81430854938225,,,,,1,1,2024-10-28_22h34.19.371,visual,2024.1.5,119.89634958421668,
2_con_totaldot,0.25,2,28,17,521,7,,,,2_con_totaldot_image_21.png,21,298.9973196427803,299.24823500831843,5.wav,299.3488676249981,4.mp4,299.3488676249981,1,1,2024-10-28_22h34.19.371,visual,2024.1.5,119.89634958421668,
5_con_totaldot,0.25,5,29,0,522,10,,,,5_con_totaldot_image_7.png,7,301.2798583987518,301.53163384132785,,,,,1,1,2024-10-28_22h34.19.371,visual,2024.1.5,119.89634958421668,
1_con_singledot,0.25,1,29,1,523,0,,,,1_con_singledot_image_57.png,57,301.72533794314364,301.9810157163185,,,,,1,1,2024-10-28_22h34.19.371,visual,2024.1.5,119.89634958421668,
2_con_circum,0.25,2,29,2,524,13,,,,2_con_circum_image_11.png,11,302.1647121007321,302.41874963334993,,,,,1,1,2024-10-28_22h34.19.371,visual,2024.1.5,119.89634958421668,
5_con_circum,0.25,5,29,3,525,16,,,,5_con_circum_image_69.png,69,302.6093469841522,302.8646282163565,,,,,1,1,2024-10-28_22h34.19.371,visual,2024.1.5,119.89634958421668,
4_con_singledot,0.25,4,29,4,526,3,,,,4_con_singledot_image_44.png,44,303.047875975701,303.29828671632566,,,,,1,1,2024-10-28_22h34.19.371,visual,2024.1.5,119.89634958421668,
1_con_circum,0.25,1,29,5,527,12,,,,1_con_circum_image_43.png,43,303.48135522576047,303.730995424313,,,,,1,1,2024-10-28_22h34.19.371,visual,2024.1.5,119.89634958421668,
6_con_totaldot,0.25,6,29,6,528,11,,,,6_con_totaldot_image_58.png,58,303.9152371007716,304.16484775835414,,,,,1,1,2024-10-28_22h34.19.371,visual,2024.1.5,119.89634958421668,
4_con_circum,0.25,4,29,7,529,15,,,,4_con_circum_image_36.png,36,304.3478740597842,304.59751746639375,,,,,1,1,2024-10-28_22h34.19.371,visual,2024.1.5,119.89634958421668,
3_con_totaldot,0.25,3,29,8,530,8,,,,3_con_totaldot_image_42.png,42,304.7819461847888,305.0319212163915,,,,,1,1,2024-10-28_22h34.19.371,visual,2024.1.5,119.89634958421668,
3_con_circum,0.25,3,29,9,531,14,,,,3_con_circum_image_5.png,5,305.22315265118374,305.47408317435765,,,,,1,1,2024-10-28_22h34.19.371,visual,2024.1.5,119.89634958421668,
4_con_totaldot,0.25,4,29,10,532,9,,,,4_con_totaldot_image_22.png,22,305.65552501773925,305.90741250837453,,,,,1,1,2024-10-28_22h34.19.371,visual,2024.1.5,119.89634958421668,
2_con_singledot,0.25,2,29,11,533,1,,,,2_con_singledot_image_25.png,25,306.0890090177767,306.34080154936527,,,,,1,1,2024-10-28_22h34.19.371,visual,2024.1.5,119.89634958421668,
3_con_singledot,0.25,3,29,12,534,2,,,,3_con_singledot_image_2.png,2,306.52387505976947,306.7743378413026,,,,,1,1,2024-10-28_22h34.19.371,visual,2024.1.5,119.89634958421668,
5_con_singledot,0.25,5,29,13,535,4,,,,5_con_singledot_image_15.png,15,306.95588664277454,307.20740254932315,,,,,1,1,2024-10-28_22h34.19.371,visual,2024.1.5,119.89634958421668,
1_con_totaldot,0.25,1,29,14,536,6,,,,1_con_totaldot_image_54.png,54,307.3972869010991,307.6483642163104,,,,,1,1,2024-10-28_22h34.19.371,visual,2024.1.5,119.89634958421668,
6_con_singledot,0.25,6,29,15,537,5,,,,6_con_singledot_image_61.png,61,307.830812559789,308.08163492438615,,,,,1,1,2024-10-28_22h34.19.371,visual,2024.1.5,119.89634958421668,
6_con_circum,0.25,6,29,16,538,17,,,,6_con_circum_image_61.png,61,308.2723560680984,308.5235535493004,,,,,1,1,2024-10-28_22h34.19.371,visual,2024.1.5,119.89634958421668,
2_con_totaldot,0.25,2,29,17,539,7,,,,2_con_totaldot_image_67.png,67,308.7050410177093,308.95690842437324,1.wav,309.0566604579799,11.mp4,309.0566604579799,1,1,2024-10-28_22h34.19.371,visual,2024.1.5,119.89634958421668,
4_con_singledot,0.25,4,30,0,540,3,,,,4_con_singledot_image_69.png,69,310.9789528063731,311.2311030493467,,,,,1,1,2024-10-28_22h34.19.371,visual,2024.1.5,119.89634958421668,
6_con_totaldot,0.25,6,30,1,541,11,,,,6_con_totaldot_image_36.png,36,311.4229150261613,311.67432471631327,,,,,1,1,2024-10-28_22h34.19.371,visual,2024.1.5,119.89634958421668,
3_con_circum,0.25,3,30,2,542,14,,,,3_con_circum_image_40.png,40,311.85578101777935,312.10743742435005,,,,,1,1,2024-10-28_22h34.19.371,visual,2024.1.5,119.89634958421668,
2_con_totaldot,0.25,2,30,3,543,7,,,,2_con_totaldot_image_63.png,63,312.29747110916065,312.54849150833905,,,,,1,1,2024-10-28_22h34.19.371,visual,2024.1.5,119.89634958421668,
4_con_circum,0.25,4,30,4,544,15,,,,4_con_circum_image_5.png,5,312.7307898096973,312.9818065493484,,,,,1,1,2024-10-28_22h34.19.371,visual,2024.1.5,119.89634958421668,
2_con_singledot,0.25,2,30,5,545,1,,,,2_con_singledot_image_39.png,39,313.1641385596944,313.41526842430466,,,,,1,1,2024-10-28_22h34.19.371,visual,2024.1.5,119.89634958421668,
6_con_singledot,0.25,6,30,6,546,5,,,,6_con_singledot_image_26.png,26,313.5975020597456,313.8481144243735,,,,,1,1,2024-10-28_22h34.19.371,visual,2024.1.5,119.89634958421668,
5_con_singledot,0.25,5,30,7,547,4,,,,5_con_singledot_image_20.png,20,314.0312782677123,314.2818424663157,,,,,1,1,2024-10-28_22h34.19.371,visual,2024.1.5,119.89634958421668,
3_con_totaldot,0.25,3,30,8,548,8,,,,3_con_totaldot_image_14.png,14,314.4641552257584,314.71451321638887,,,,,1,1,2024-10-28_22h34.19.371,visual,2024.1.5,119.89634958421668,
5_con_totaldot,0.25,5,30,9,549,10,,,,5_con_totaldot_image_62.png,62,314.9062277761637,315.159739633312,,,,,1,1,2024-10-28_22h34.19.371,visual,2024.1.5,119.89634958421668,
4_con_totaldot,0.25,4,30,10,550,9,,,,4_con_totaldot_image_69.png,69,315.35811556814,315.60743588336044,,,,,1,1,2024-10-28_22h34.19.371,visual,2024.1.5,119.89634958421668,
1_con_totaldot,0.25,1,30,11,551,6,,,,1_con_totaldot_image_62.png,62,315.7973464011098,316.0485279663582,,,,,1,1,2024-10-28_22h34.19.371,visual,2024.1.5,119.89634958421668,
2_con_circum,0.25,2,30,12,552,13,,,,2_con_circum_image_48.png,48,316.23082651777656,316.4818062583101,,,,,1,1,2024-10-28_22h34.19.371,visual,2024.1.5,119.89634958421668,
3_con_singledot,0.25,3,30,13,553,2,,,,3_con_singledot_image_20.png,20,316.6648155597271,316.9153284663218,,,,,1,1,2024-10-28_22h34.19.371,visual,2024.1.5,119.89634958421668,
1_con_circum,0.25,1,30,14,554,12,,,,1_con_circum_image_57.png,57,317.097944517713,317.34881742437136,,,,,1,1,2024-10-28_22h34.19.371,visual,2024.1.5,119.89634958421668,
6_con_circum,0.25,6,30,15,555,17,,,,6_con_circum_image_64.png,64,317.5308499757433,317.78145875838817,,,,,1,1,2024-10-28_22h34.19.371,visual,2024.1.5,119.89634958421668,
5_con_circum,0.25,5,30,16,556,16,,,,5_con_circum_image_53.png,53,317.96470797571817,318.2153155493899,,,,,1,1,2024-10-28_22h34.19.371,visual,2024.1.5,119.89634958421668,
1_con_singledot,0.25,1,30,17,557,0,,,,1_con_singledot_image_68.png,68,318.4062367340899,318.6575033833389,5.wav,318.7571244999999,1.mp4,318.7571244999999,1,1,2024-10-28_22h34.19.371,visual,2024.1.5,119.89634958421668,
5_con_totaldot,0.25,5,31,0,558,10,,,,5_con_totaldot_image_21.png,21,320.67681235672205,320.9313104243367,,,,,1,1,2024-10-28_22h34.19.371,visual,2024.1.5,119.89634958421668,
6_con_totaldot,0.25,6,31,1,559,11,,,,6_con_totaldot_image_18.png,18,321.131234617508,321.3804055913235,,,,,1,1,2024-10-28_22h34.19.371,visual,2024.1.5,119.89634958421668,
2_con_singledot,0.25,2,31,2,560,1,,,,2_con_singledot_image_55.png,55,321.56491897578815,321.8153407993843,,,,,1,1,2024-10-28_22h34.19.371,visual,2024.1.5,119.89634958421668,
4_con_totaldot,0.25,4,31,3,561,9,,,,4_con_totaldot_image_54.png,54,321.99754126775076,322.24832600831286,,,,,1,1,2024-10-28_22h34.19.371,visual,2024.1.5,119.89634958421668,
3_con_circum,0.25,3,31,4,562,14,,,,3_con_circum_image_34.png,34,322.43942115114766,322.69029992433497,,,,,1,1,2024-10-28_22h34.19.371,visual,2024.1.5,119.89634958421668,
6_con_circum,0.25,6,31,5,563,17,,,,6_con_circum_image_28.png,28,322.8718586007366,323.1236344663077,,,,,1,1,2024-10-28_22h34.19.371,visual,2024.1.5,119.89634958421668,
5_con_circum,0.25,5,31,6,564,16,,,,5_con_circum_image_57.png,57,323.31346006816017,323.56493642436106,,,,,1,1,2024-10-28_22h34.19.371,visual,2024.1.5,119.89634958421668,
1_con_circum,0.25,1,31,7,565,12,,,,1_con_circum_image_44.png,44,323.74837793477343,323.9977691332926,,,,,1,1,2024-10-28_22h34.19.371,visual,2024.1.5,119.89634958421668,
1_con_singledot,0.25,1,31,8,566,0,,,,1_con_singledot_image_55.png,55,324.1819892677944,324.4324100083788,,,,,1,1,2024-10-28_22h34.19.371,visual,2024.1.5,119.89634958421668,
4_con_singledot,0.25,4,31,9,567,3,,,,4_con_singledot_image_38.png,38,324.6314907677937,324.88192471639485,,,,,1,1,2024-10-28_22h34.19.371,visual,2024.1.5,119.89634958421668,
3_con_singledot,0.25,3,31,10,568,2,,,,3_con_singledot_image_43.png,43,325.0733614430879,325.32385138339595,,,,,1,1,2024-10-28_22h34.19.371,visual,2024.1.5,119.89634958421668,
2_con_totaldot,0.25,2,31,11,569,7,,,,2_con_totaldot_image_45.png,45,325.50608922573736,325.7577802163898,,,,,1,1,2024-10-28_22h34.19.371,visual,2024.1.5,119.89634958421668,
1_con_totaldot,0.25,1,31,12,570,6,,,,1_con_totaldot_image_36.png,36,325.96501162595814,326.21450688339536,,,,,1,1,2024-10-28_22h34.19.371,visual,2024.1.5,119.89634958421668,
2_con_circum,0.25,2,31,13,571,13,,,,2_con_circum_image_27.png,27,326.69629502811,326.9479467583471,,,,,1,1,2024-10-28_22h34.19.371,visual,2024.1.5,119.89634958421668,
