condition,duration,numerosity,trials.thisRepN,trials.thisTrialN,trials.thisN,trials.thisIndex,thisRow.t,notes,text_welcome.started,image_name,image.started,image.stopped,audio_name,audio_started,movie_name,movie_started,participant,session,date|hid,expName|hid,psychopyVersion|hid,frameRate,
4_con_totaldot,0.25,4,0,0,0,9,,,117.96040424999956,4_con_totaldot_image_15.png,120.94350055000686,121.195714670507,,,,,1,1,2024-10-11_16h33.49.368,visual,2024.1.5,119.39894618080346,
6_con_circum,0.25,6,0,1,1,17,,,,6_con_circum_image_15.png,121.30789230451627,121.56245162950363,,,,,1,1,2024-10-11_16h33.49.368,visual,2024.1.5,119.39894618080346,
5_con_circum,0.25,5,0,2,2,16,,,,5_con_circum_image_15.png,121.6691340955207,121.91938458750955,,,,,1,1,2024-10-11_16h33.49.368,visual,2024.1.5,119.39894618080346,
4_con_circum,0.25,4,0,3,3,15,,,,4_con_circum_image_15.png,122.02836992951633,122.27911025449866,,,,,1,1,2024-10-11_16h33.49.368,visual,2024.1.5,119.39894618080346,
6_con_singledot,0.25,6,0,4,4,5,,,,6_con_singledot_image_15.png,122.38580009551369,122.63656979550142,,,,,1,1,2024-10-11_16h33.49.368,visual,2024.1.5,119.39894618080346,
5_con_singledot,0.25,5,0,5,5,4,,,,5_con_singledot_image_15.png,122.74520722051092,122.99576587949996,,,,,1,1,2024-10-11_16h33.49.368,visual,2024.1.5,119.39894618080346,
2_con_singledot,0.25,2,0,6,6,1,,,,2_con_singledot_image_15.png,123.10177955451071,123.35367496250255,,,,,1,1,2024-10-11_16h33.49.368,visual,2024.1.5,119.39894618080346,
2_con_totaldot,0.25,2,0,7,7,7,,,,2_con_totaldot_image_15.png,123.46195747051969,123.71598133750085,,,,,1,1,2024-10-11_16h33.49.368,visual,2024.1.5,119.39894618080346,
3_con_singledot,0.25,3,0,8,8,2,,,,3_con_singledot_image_15.png,123.82605188752349,124.07918150450568,,,,,1,1,2024-10-11_16h33.49.368,visual,2024.1.5,119.39894618080346,
3_con_totaldot,0.25,3,0,9,9,8,,,,3_con_totaldot_image_15.png,124.1864842625131,124.44706583750376,,,,,1,1,2024-10-11_16h33.49.368,visual,2024.1.5,119.39894618080346,
1_con_singledot,0.25,1,0,10,10,0,,,,1_con_singledot_image_15.png,124.56007492951757,124.8125628375099,,,,,1,1,2024-10-11_16h33.49.368,visual,2024.1.5,119.39894618080346,
2_con_circum,0.25,2,0,11,11,13,,,,2_con_circum_image_15.png,124.91936638751066,125.16995342050795,,,,,1,1,2024-10-11_16h33.49.368,visual,2024.1.5,119.39894618080346,
1_con_totaldot,0.25,1,0,12,12,6,,,,1_con_totaldot_image_15.png,125.27802776251919,125.52894633750547,,,,,1,1,2024-10-11_16h33.49.368,visual,2024.1.5,119.39894618080346,
6_con_totaldot,0.25,6,0,13,13,11,,,,6_con_totaldot_image_15.png,125.63626547052117,125.88731604550848,,,,,1,1,2024-10-11_16h33.49.368,visual,2024.1.5,119.39894618080346,
5_con_totaldot,0.25,5,0,14,14,10,,,,5_con_totaldot_image_15.png,125.99623613751318,126.25047067050473,,,,,1,1,2024-10-11_16h33.49.368,visual,2024.1.5,119.39894618080346,
3_con_circum,0.25,3,0,15,15,14,,,,3_con_circum_image_15.png,126.35795972051564,126.61282792051206,,,,,1,1,2024-10-11_16h33.49.368,visual,2024.1.5,119.39894618080346,
1_con_circum,0.25,1,0,16,16,12,,,,1_con_circum_image_15.png,126.7195409705222,126.96998896250152,,,,,1,1,2024-10-11_16h33.49.368,visual,2024.1.5,119.39894618080346,
4_con_singledot,0.25,4,0,17,17,3,,,,4_con_singledot_image_15.png,127.07851067951414,127.32966971250134,3.wav,127.42919375000929,15.mp4,127.42919375000929,1,1,2024-10-11_16h33.49.368,visual,2024.1.5,119.39894618080346,
3_con_singledot,0.25,3,1,0,18,2,,,,3_con_singledot_image_29.png,129.2467599875905,129.49599921250484,,,,,1,1,2024-10-11_16h33.49.368,visual,2024.1.5,119.39894618080346,
1_con_totaldot,0.25,1,1,1,19,6,,,,1_con_totaldot_image_29.png,129.60321572051035,129.85343300450478,,,,,1,1,2024-10-11_16h33.49.368,visual,2024.1.5,119.39894618080346,
4_con_singledot,0.25,4,1,2,20,3,,,,4_con_singledot_image_29.png,129.96223022051564,130.21235392050295,,,,,1,1,2024-10-11_16h33.49.368,visual,2024.1.5,119.39894618080346,
2_con_singledot,0.25,2,1,3,21,1,,,,2_con_singledot_image_29.png,130.32113647051156,130.57893542050152,,,,,1,1,2024-10-11_16h33.49.368,visual,2024.1.5,119.39894618080346,
2_con_totaldot,0.25,2,1,4,22,7,,,,2_con_totaldot_image_29.png,130.6858764705161,130.93649029551017,,,,,1,1,2024-10-11_16h33.49.368,visual,2024.1.5,119.39894618080346,
5_con_circum,0.25,5,1,5,23,16,,,,5_con_circum_image_29.png,131.04478901251278,131.29599808749919,,,,,1,1,2024-10-11_16h33.49.368,visual,2024.1.5,119.39894618080346,
3_con_totaldot,0.25,3,1,6,24,8,,,,3_con_totaldot_image_29.png,131.40281267952233,131.6535130454984,,,,,1,1,2024-10-11_16h33.49.368,visual,2024.1.5,119.39894618080346,
2_con_circum,0.25,2,1,7,25,13,,,,2_con_circum_image_29.png,131.76285084551492,132.01250671250165,,,,,1,1,2024-10-11_16h33.49.368,visual,2024.1.5,119.39894618080346,
6_con_singledot,0.25,6,1,8,26,5,,,,6_con_singledot_image_29.png,132.1193251375138,132.36984146250762,,,,,1,1,2024-10-11_16h33.49.368,visual,2024.1.5,119.39894618080346,
1_con_singledot,0.25,1,1,9,27,0,,,,1_con_singledot_image_29.png,132.47820876251208,132.72939671251225,,,,,1,1,2024-10-11_16h33.49.368,visual,2024.1.5,119.39894618080346,
6_con_totaldot,0.25,6,1,10,28,11,,,,6_con_totaldot_image_29.png,132.8360275955114,133.0872908795107,,,,,1,1,2024-10-11_16h33.49.368,visual,2024.1.5,119.39894618080346,
5_con_singledot,0.25,5,1,11,29,4,,,,5_con_singledot_image_29.png,133.19554276251293,133.44642546250253,,,,,1,1,2024-10-11_16h33.49.368,visual,2024.1.5,119.39894618080346,
1_con_circum,0.25,1,1,12,30,12,,,,1_con_circum_image_29.png,133.55312617951714,133.80371758750408,,,,,1,1,2024-10-11_16h33.49.368,visual,2024.1.5,119.39894618080346,
3_con_circum,0.25,3,1,13,31,14,,,,3_con_circum_image_29.png,133.91190647052136,134.1623595875106,,,,,1,1,2024-10-11_16h33.49.368,visual,2024.1.5,119.39894618080346,
4_con_totaldot,0.25,4,1,14,32,9,,,,4_con_totaldot_image_29.png,134.26910526252178,134.52024129550847,,,,,1,1,2024-10-11_16h33.49.368,visual,2024.1.5,119.39894618080346,
6_con_circum,0.25,6,1,15,33,17,,,,6_con_circum_image_29.png,134.62859884551145,134.87973700450385,,,,,1,1,2024-10-11_16h33.49.368,visual,2024.1.5,119.39894618080346,
5_con_totaldot,0.25,5,1,16,34,10,,,,5_con_totaldot_image_29.png,134.98645359551884,135.23758637949942,,,,,1,1,2024-10-11_16h33.49.368,visual,2024.1.5,119.39894618080346,
4_con_circum,0.25,4,1,17,35,15,,,,4_con_circum_image_29.png,135.3453365545196,135.59608146251122,5.wav,135.69559991700226,13.mp4,135.69559991700226,1,1,2024-10-11_16h33.49.368,visual,2024.1.5,119.39894618080346,
3_con_circum,0.25,3,2,0,36,14,,,,3_con_circum_image_28.png,137.54007340459214,137.79611792051293,,,,,1,1,2024-10-11_16h33.49.368,visual,2024.1.5,119.39894618080346,
1_con_totaldot,0.25,1,2,1,37,6,,,,1_con_totaldot_image_28.png,137.90293826252164,138.15573129550904,,,,,1,1,2024-10-11_16h33.49.368,visual,2024.1.5,119.39894618080346,
6_con_circum,0.25,6,2,2,38,17,,,,6_con_circum_image_28.png,138.26333355451644,138.51240258750914,,,,,1,1,2024-10-11_16h33.49.368,visual,2024.1.5,119.39894618080346,
4_con_circum,0.25,4,2,3,39,15,,,,4_con_circum_image_28.png,138.61916784551286,138.8708735875087,,,,,1,1,2024-10-11_16h33.49.368,visual,2024.1.5,119.39894618080346,
4_con_totaldot,0.25,4,2,4,40,9,,,,4_con_totaldot_image_28.png,138.9791655125213,139.2294645455084,,,,,1,1,2024-10-11_16h33.49.368,visual,2024.1.5,119.39894618080346,
1_con_singledot,0.25,1,2,5,41,0,,,,1_con_singledot_image_28.png,139.33636992952088,139.58648025450822,,,,,1,1,2024-10-11_16h33.49.368,visual,2024.1.5,119.39894618080346,
3_con_totaldot,0.25,3,2,6,42,8,,,,3_con_totaldot_image_28.png,139.69567926251912,139.9465520875063,,,,,1,1,2024-10-11_16h33.49.368,visual,2024.1.5,119.39894618080346,
5_con_singledot,0.25,5,2,7,43,4,,,,5_con_singledot_image_28.png,140.05343826251047,140.30361321250967,,,,,1,1,2024-10-11_16h33.49.368,visual,2024.1.5,119.39894618080346,
4_con_singledot,0.25,4,2,8,44,3,,,,4_con_singledot_image_28.png,140.41277713751188,140.66342792049983,,,,,1,1,2024-10-11_16h33.49.368,visual,2024.1.5,119.39894618080346,
6_con_singledot,0.25,6,2,9,45,5,,,,6_con_singledot_image_28.png,140.77015363751562,141.02063829550463,,,,,1,1,2024-10-11_16h33.49.368,visual,2024.1.5,119.39894618080346,
2_con_totaldot,0.25,2,2,10,46,7,,,,2_con_totaldot_image_28.png,141.12911376251432,141.3790584205097,,,,,1,1,2024-10-11_16h33.49.368,visual,2024.1.5,119.39894618080346,
5_con_totaldot,0.25,5,2,11,47,10,,,,5_con_totaldot_image_28.png,141.4858118875185,141.73658562950442,,,,,1,1,2024-10-11_16h33.49.368,visual,2024.1.5,119.39894618080346,
2_con_circum,0.25,2,2,12,48,13,,,,2_con_circum_image_28.png,141.84563288750942,142.09622658751033,,,,,1,1,2024-10-11_16h33.49.368,visual,2024.1.5,119.39894618080346,
5_con_circum,0.25,5,2,13,49,16,,,,5_con_circum_image_28.png,142.20289667951002,142.45322121250211,,,,,1,1,2024-10-11_16h33.49.368,visual,2024.1.5,119.39894618080346,
2_con_singledot,0.25,2,2,14,50,1,,,,2_con_singledot_image_28.png,142.5627308875177,142.81283229549882,,,,,1,1,2024-10-11_16h33.49.368,visual,2024.1.5,119.39894618080346,
6_con_totaldot,0.25,6,2,15,51,11,,,,6_con_totaldot_image_28.png,142.9197538875218,143.17003242051288,,,,,1,1,2024-10-11_16h33.49.368,visual,2024.1.5,119.39894618080346,
1_con_circum,0.25,1,2,16,52,12,,,,1_con_circum_image_28.png,143.27959867951577,143.52947483749887,,,,,1,1,2024-10-11_16h33.49.368,visual,2024.1.5,119.39894618080346,
3_con_singledot,0.25,3,2,17,53,2,,,,3_con_singledot_image_28.png,143.6362359295221,143.88721787951073,1.wav,143.98853183300525,4.mp4,143.98853183300525,1,1,2024-10-11_16h33.49.368,visual,2024.1.5,119.39894618080346,
3_con_singledot,0.25,3,3,0,54,2,,,,3_con_singledot_image_14.png,145.81367394558913,146.07026004550863,,,,,1,1,2024-10-11_16h33.49.368,visual,2024.1.5,119.39894618080346,
4_con_singledot,0.25,4,3,1,55,3,,,,4_con_singledot_image_14.png,146.17899480451015,146.42972504551,,,,,1,1,2024-10-11_16h33.49.368,visual,2024.1.5,119.39894618080346,
6_con_circum,0.25,6,3,2,56,17,,,,6_con_circum_image_14.png,146.53646155451716,146.78711742050365,,,,,1,1,2024-10-11_16h33.49.368,visual,2024.1.5,119.39894618080346,
6_con_totaldot,0.25,6,3,3,57,11,,,,6_con_totaldot_image_14.png,146.8951870545192,147.1463399205066,,,,,1,1,2024-10-11_16h33.49.368,visual,2024.1.5,119.39894618080346,
5_con_circum,0.25,5,3,4,58,16,,,,5_con_circum_image_14.png,147.253046804521,147.50352750450548,,,,,1,1,2024-10-11_16h33.49.368,visual,2024.1.5,119.39894618080346,
1_con_totaldot,0.25,1,3,5,59,6,,,,1_con_totaldot_image_14.png,147.61269563751412,147.86369458750124,,,,,1,1,2024-10-11_16h33.49.368,visual,2024.1.5,119.39894618080346,
2_con_totaldot,0.25,2,3,6,60,7,,,,2_con_totaldot_image_14.png,147.97062059552118,148.2206618794997,,,,,1,1,2024-10-11_16h33.49.368,visual,2024.1.5,119.39894618080346,
2_con_circum,0.25,2,3,7,61,13,,,,2_con_circum_image_14.png,148.32940622051538,148.57978237951176,,,,,1,1,2024-10-11_16h33.49.368,visual,2024.1.5,119.39894618080346,
5_con_totaldot,0.25,5,3,8,62,10,,,,5_con_totaldot_image_14.png,148.68657509550977,148.9367364205071,,,,,1,1,2024-10-11_16h33.49.368,visual,2024.1.5,119.39894618080346,
5_con_singledot,0.25,5,3,9,63,4,,,,5_con_singledot_image_14.png,149.04590438752203,149.29639067050886,,,,,1,1,2024-10-11_16h33.49.368,visual,2024.1.5,119.39894618080346,
3_con_circum,0.25,3,3,10,64,14,,,,3_con_circum_image_14.png,149.40315547052015,149.65277942050017,,,,,1,1,2024-10-11_16h33.49.368,visual,2024.1.5,119.39894618080346,
1_con_circum,0.25,1,3,11,65,12,,,,1_con_circum_image_14.png,149.76271792951448,150.01354375450757,,,,,1,1,2024-10-11_16h33.49.368,visual,2024.1.5,119.39894618080346,
1_con_singledot,0.25,1,3,12,66,0,,,,1_con_singledot_image_14.png,150.1219063045195,150.38021421250306,,,,,1,1,2024-10-11_16h33.49.368,visual,2024.1.5,119.39894618080346,
2_con_singledot,0.25,2,3,13,67,1,,,,2_con_singledot_image_14.png,150.48867834552075,150.74717079550902,,,,,1,1,2024-10-11_16h33.49.368,visual,2024.1.5,119.39894618080346,
4_con_circum,0.25,4,3,14,68,15,,,,4_con_circum_image_14.png,150.855635554521,151.1130913375062,,,,,1,1,2024-10-11_16h33.49.368,visual,2024.1.5,119.39894618080346,
4_con_totaldot,0.25,4,3,15,69,9,,,,4_con_totaldot_image_14.png,151.21987222051249,151.46999354551082,,,,,1,1,2024-10-11_16h33.49.368,visual,2024.1.5,119.39894618080346,
3_con_totaldot,0.25,3,3,16,70,8,,,,3_con_totaldot_image_14.png,151.57941363751016,151.83026696250892,,,,,1,1,2024-10-11_16h33.49.368,visual,2024.1.5,119.39894618080346,
6_con_singledot,0.25,6,3,17,71,5,,,,6_con_singledot_image_14.png,151.9370844705176,152.18898783750484,2.wav,152.28917612500663,13.mp4,152.28917612500663,1,1,2024-10-11_16h33.49.368,visual,2024.1.5,119.39894618080346,
6_con_circum,0.25,6,4,0,72,17,,,,6_con_circum_image_16.png,154.11530652958902,154.36449267049903,,,,,1,1,2024-10-11_16h33.49.368,visual,2024.1.5,119.39894618080346,
1_con_totaldot,0.25,1,4,1,73,6,,,,1_con_totaldot_image_16.png,154.47232963752177,154.7295239205094,,,,,1,1,2024-10-11_16h33.49.368,visual,2024.1.5,119.39894618080346,
2_con_totaldot,0.25,2,4,2,74,7,,,,2_con_totaldot_image_16.png,154.83633047051845,155.08745583750425,,,,,1,1,2024-10-11_16h33.49.368,visual,2024.1.5,119.39894618080346,
1_con_singledot,0.25,1,4,3,75,0,,,,1_con_singledot_image_16.png,155.19602272051853,155.44661025450915,,,,,1,1,2024-10-11_16h33.49.368,visual,2024.1.5,119.39894618080346,
3_con_circum,0.25,3,4,4,76,14,,,,3_con_circum_image_16.png,155.55487322051195,155.80405975450122,,,,,1,1,2024-10-11_16h33.49.368,visual,2024.1.5,119.39894618080346,
5_con_totaldot,0.25,5,4,5,77,10,,,,5_con_totaldot_image_16.png,155.91282342951163,156.16692921251234,,,,,1,1,2024-10-11_16h33.49.368,visual,2024.1.5,119.39894618080346,
6_con_singledot,0.25,6,4,6,78,5,,,,6_con_singledot_image_16.png,156.27774934551272,156.53158221250925,,,,,1,1,2024-10-11_16h33.49.368,visual,2024.1.5,119.39894618080346,
5_con_circum,0.25,5,4,7,79,16,,,,5_con_circum_image_16.png,156.63898726252083,156.89653162950418,,,,,1,1,2024-10-11_16h33.49.368,visual,2024.1.5,119.39894618080346,
3_con_singledot,0.25,3,4,8,80,2,,,,3_con_singledot_image_16.png,157.0032903045125,157.25412425450924,,,,,1,1,2024-10-11_16h33.49.368,visual,2024.1.5,119.39894618080346,
5_con_singledot,0.25,5,4,9,81,4,,,,5_con_singledot_image_16.png,157.3628184295143,157.6127957955003,,,,,1,1,2024-10-11_16h33.49.368,visual,2024.1.5,119.39894618080346,
6_con_totaldot,0.25,6,4,10,82,11,,,,6_con_totaldot_image_16.png,157.71947984552244,157.9710733795044,,,,,1,1,2024-10-11_16h33.49.368,visual,2024.1.5,119.39894618080346,
2_con_circum,0.25,2,4,11,83,13,,,,2_con_circum_image_16.png,158.0792001795111,158.329998045502,,,,,1,1,2024-10-11_16h33.49.368,visual,2024.1.5,119.39894618080346,
4_con_circum,0.25,4,4,12,84,15,,,,4_con_circum_image_16.png,158.43667934551777,158.6873992545123,,,,,1,1,2024-10-11_16h33.49.368,visual,2024.1.5,119.39894618080346,
4_con_singledot,0.25,4,4,13,85,3,,,,4_con_singledot_image_16.png,158.79584697051033,159.0462601705047,,,,,1,1,2024-10-11_16h33.49.368,visual,2024.1.5,119.39894618080346,
1_con_circum,0.25,1,4,14,86,12,,,,1_con_circum_image_16.png,159.15307855450956,159.40410692050938,,,,,1,1,2024-10-11_16h33.49.368,visual,2024.1.5,119.39894618080346,
3_con_totaldot,0.25,3,4,15,87,8,,,,3_con_totaldot_image_16.png,159.51248809551763,159.7632993375126,,,,,1,1,2024-10-11_16h33.49.368,visual,2024.1.5,119.39894618080346,
2_con_singledot,0.25,2,4,16,88,1,,,,2_con_singledot_image_16.png,159.869977429515,160.12042883751275,,,,,1,1,2024-10-11_16h33.49.368,visual,2024.1.5,119.39894618080346,
4_con_totaldot,0.25,4,4,17,89,9,,,,4_con_totaldot_image_16.png,160.2299645545194,160.4803777955065,1.wav,160.58137516700663,5.mp4,160.58137516700663,1,1,2024-10-11_16h33.49.368,visual,2024.1.5,119.39894618080346,
1_con_circum,0.25,1,5,0,90,12,,,,1_con_circum_image_17.png,162.40736107059058,162.66292958749983,,,,,1,1,2024-10-11_16h33.49.368,visual,2024.1.5,119.39894618080346,
4_con_totaldot,0.25,4,5,1,91,9,,,,4_con_totaldot_image_17.png,162.76971072052257,163.02090587951244,,,,,1,1,2024-10-11_16h33.49.368,visual,2024.1.5,119.39894618080346,
6_con_singledot,0.25,6,5,2,92,5,,,,6_con_singledot_image_17.png,163.1293294295232,163.3801074205083,,,,,1,1,2024-10-11_16h33.49.368,visual,2024.1.5,119.39894618080346,
5_con_circum,0.25,5,5,3,93,16,,,,5_con_circum_image_17.png,163.488476262521,163.7466343795066,,,,,1,1,2024-10-11_16h33.49.368,visual,2024.1.5,119.39894618080346,
3_con_totaldot,0.25,3,5,4,94,8,,,,3_con_totaldot_image_17.png,163.85337063752232,164.1046800045122,,,,,1,1,2024-10-11_16h33.49.368,visual,2024.1.5,119.39894618080346,
5_con_singledot,0.25,5,5,5,95,4,,,,5_con_singledot_image_17.png,164.21303430451954,164.46532950451075,,,,,1,1,2024-10-11_16h33.49.368,visual,2024.1.5,119.39894618080346,
3_con_singledot,0.25,3,5,6,96,2,,,,3_con_singledot_image_17.png,164.57265359550948,164.8300604205113,,,,,1,1,2024-10-11_16h33.49.368,visual,2024.1.5,119.39894618080346,
2_con_singledot,0.25,2,5,7,97,1,,,,2_con_singledot_image_17.png,164.9369152205094,165.1879983375082,,,,,1,1,2024-10-11_16h33.49.368,visual,2024.1.5,119.39894618080346,
5_con_totaldot,0.25,5,5,8,98,10,,,,5_con_totaldot_image_17.png,165.29619167952333,165.54743642051181,,,,,1,1,2024-10-11_16h33.49.368,visual,2024.1.5,119.39894618080346,
6_con_circum,0.25,6,5,9,99,17,,,,6_con_circum_image_17.png,165.65584347051336,165.9131356295082,,,,,1,1,2024-10-11_16h33.49.368,visual,2024.1.5,119.39894618080346,
4_con_circum,0.25,4,5,10,100,15,,,,4_con_circum_image_17.png,166.02126751251345,166.2704744625051,,,,,1,1,2024-10-11_16h33.49.368,visual,2024.1.5,119.39894618080346,
1_con_singledot,0.25,1,5,11,101,0,,,,1_con_singledot_image_17.png,166.37979797051813,166.63012229550515,,,,,1,1,2024-10-11_16h33.49.368,visual,2024.1.5,119.39894618080346,
2_con_totaldot,0.25,2,5,12,102,7,,,,2_con_totaldot_image_17.png,166.73695476251888,166.98791483750102,,,,,1,1,2024-10-11_16h33.49.368,visual,2024.1.5,119.39894618080346,
1_con_totaldot,0.25,1,5,13,103,6,,,,1_con_totaldot_image_17.png,167.0962254295213,167.34688279550465,,,,,1,1,2024-10-11_16h33.49.368,visual,2024.1.5,119.39894618080346,
3_con_circum,0.25,3,5,14,104,14,,,,3_con_circum_image_17.png,167.45294217952178,167.7038248375,,,,,1,1,2024-10-11_16h33.49.368,visual,2024.1.5,119.39894618080346,
4_con_singledot,0.25,4,5,15,105,3,,,,4_con_singledot_image_17.png,167.81312517951883,168.06294971250173,,,,,1,1,2024-10-11_16h33.49.368,visual,2024.1.5,119.39894618080346,
6_con_totaldot,0.25,6,5,16,106,11,,,,6_con_totaldot_image_17.png,168.16963547051128,168.42106925449917,,,,,1,1,2024-10-11_16h33.49.368,visual,2024.1.5,119.39894618080346,
2_con_circum,0.25,2,5,17,107,13,,,,2_con_circum_image_17.png,168.52884867950925,168.78054050450447,1.wav,168.88136204201146,1.mp4,168.88136204201146,1,1,2024-10-11_16h33.49.368,visual,2024.1.5,119.39894618080346,
1_con_totaldot,0.25,1,6,0,108,6,,,,1_con_totaldot_image_13.png,170.7078034455859,170.96355508750713,,,,,1,1,2024-10-11_16h33.49.368,visual,2024.1.5,119.39894618080346,
1_con_singledot,0.25,1,6,1,109,0,,,,1_con_singledot_image_13.png,171.0703173455171,171.32107521249856,,,,,1,1,2024-10-11_16h33.49.368,visual,2024.1.5,119.39894618080346,
2_con_totaldot,0.25,2,6,2,110,7,,,,2_con_totaldot_image_13.png,171.4296318455221,171.68010975450744,,,,,1,1,2024-10-11_16h33.49.368,visual,2024.1.5,119.39894618080346,
3_con_totaldot,0.25,3,6,3,111,8,,,,3_con_totaldot_image_13.png,171.7868158045225,172.03766671250634,,,,,1,1,2024-10-11_16h33.49.368,visual,2024.1.5,119.39894618080346,
6_con_circum,0.25,6,6,4,112,17,,,,6_con_circum_image_13.png,172.14653705451056,172.39751167050855,,,,,1,1,2024-10-11_16h33.49.368,visual,2024.1.5,119.39894618080346,
6_con_singledot,0.25,6,6,5,113,5,,,,6_con_singledot_image_13.png,172.50438934552076,172.75435037949939,,,,,1,1,2024-10-11_16h33.49.368,visual,2024.1.5,119.39894618080346,
2_con_singledot,0.25,2,6,6,114,1,,,,2_con_singledot_image_13.png,172.86296476251155,173.1139540875127,,,,,1,1,2024-10-11_16h33.49.368,visual,2024.1.5,119.39894618080346,
4_con_totaldot,0.25,4,6,7,115,9,,,,4_con_totaldot_image_13.png,173.22064438750968,173.47117862950546,,,,,1,1,2024-10-11_16h33.49.368,visual,2024.1.5,119.39894618080346,
3_con_singledot,0.25,3,6,8,116,2,,,,3_con_singledot_image_13.png,173.58020226251975,173.83018075450383,,,,,1,1,2024-10-11_16h33.49.368,visual,2024.1.5,119.39894618080346,
4_con_singledot,0.25,4,6,9,117,3,,,,4_con_singledot_image_13.png,173.9368745545129,174.18782462950622,,,,,1,1,2024-10-11_16h33.49.368,visual,2024.1.5,119.39894618080346,
2_con_circum,0.25,2,6,10,118,13,,,,2_con_circum_image_13.png,174.2968128045235,174.54693046251197,,,,,1,1,2024-10-11_16h33.49.368,visual,2024.1.5,119.39894618080346,
5_con_totaldot,0.25,5,6,11,119,10,,,,5_con_totaldot_image_13.png,174.65382834552148,174.90436379550084,,,,,1,1,2024-10-11_16h33.49.368,visual,2024.1.5,119.39894618080346,
5_con_circum,0.25,5,6,12,120,16,,,,5_con_circum_image_13.png,175.01283930452192,175.26403296251084,,,,,1,1,2024-10-11_16h33.49.368,visual,2024.1.5,119.39894618080346,
3_con_circum,0.25,3,6,13,121,14,,,,3_con_circum_image_13.png,175.37072842951457,175.62116667050287,,,,,1,1,2024-10-11_16h33.49.368,visual,2024.1.5,119.39894618080346,
6_con_totaldot,0.25,6,6,14,122,11,,,,6_con_totaldot_image_13.png,175.72999322051183,175.9798054204992,,,,,1,1,2024-10-11_16h33.49.368,visual,2024.1.5,119.39894618080346,
4_con_circum,0.25,4,6,15,123,15,,,,4_con_circum_image_13.png,176.08663167952037,176.33779771250266,,,,,1,1,2024-10-11_16h33.49.368,visual,2024.1.5,119.39894618080346,
5_con_singledot,0.25,5,6,16,124,4,,,,5_con_singledot_image_13.png,176.44577592950955,176.69702804551054,,,,,1,1,2024-10-11_16h33.49.368,visual,2024.1.5,119.39894618080346,
1_con_circum,0.25,1,6,17,125,12,,,,1_con_circum_image_13.png,176.8050973875128,177.05502487950145,2.wav,177.15570020800806,16.mp4,177.15570020800806,1,1,2024-10-11_16h33.49.368,visual,2024.1.5,119.39894618080346,
3_con_totaldot,0.25,3,7,0,126,8,,,,3_con_totaldot_image_12.png,178.97925998758876,179.2303927125002,,,,,1,1,2024-10-11_16h33.49.368,visual,2024.1.5,119.39894618080346,
6_con_circum,0.25,6,7,1,127,17,,,,6_con_circum_image_12.png,179.3371820125234,179.58778433750268,,,,,1,1,2024-10-11_16h33.49.368,visual,2024.1.5,119.39894618080346,
5_con_singledot,0.25,5,7,2,128,4,,,,5_con_singledot_image_12.png,179.6957901795162,179.94732025450213,,,,,1,1,2024-10-11_16h33.49.368,visual,2024.1.5,119.39894618080346,
1_con_circum,0.25,1,7,3,129,12,,,,1_con_circum_image_12.png,180.0540313455189,180.304027629504,,,,,1,1,2024-10-11_16h33.49.368,visual,2024.1.5,119.39894618080346,
5_con_circum,0.25,5,7,4,130,16,,,,5_con_circum_image_12.png,180.41328109551105,180.66324675451034,,,,,1,1,2024-10-11_16h33.49.368,visual,2024.1.5,119.39894618080346,
6_con_singledot,0.25,6,7,5,131,5,,,,6_con_singledot_image_12.png,180.77005542952102,181.0213362545008,,,,,1,1,2024-10-11_16h33.49.368,visual,2024.1.5,119.39894618080346,
6_con_totaldot,0.25,6,7,6,132,11,,,,6_con_totaldot_image_12.png,181.13029830452288,181.3806785455061,,,,,1,1,2024-10-11_16h33.49.368,visual,2024.1.5,119.39894618080346,
4_con_circum,0.25,4,7,7,133,15,,,,4_con_circum_image_12.png,181.48845626251423,181.73779617050315,,,,,1,1,2024-10-11_16h33.49.368,visual,2024.1.5,119.39894618080346,
3_con_circum,0.25,3,7,8,134,14,,,,3_con_circum_image_12.png,181.84621513751918,182.09723467050645,,,,,1,1,2024-10-11_16h33.49.368,visual,2024.1.5,119.39894618080346,
2_con_singledot,0.25,2,7,9,135,1,,,,2_con_singledot_image_12.png,182.2054805125139,182.45498154550734,,,,,1,1,2024-10-11_16h33.49.368,visual,2024.1.5,119.39894618080346,
2_con_circum,0.25,2,7,10,136,13,,,,2_con_circum_image_12.png,182.56250901251624,182.8134190454992,,,,,1,1,2024-10-11_16h33.49.368,visual,2024.1.5,119.39894618080346,
1_con_singledot,0.25,1,7,11,137,0,,,,1_con_singledot_image_12.png,182.92007242951368,183.1707568795071,,,,,1,1,2024-10-11_16h33.49.368,visual,2024.1.5,119.39894618080346,
1_con_totaldot,0.25,1,7,12,138,6,,,,1_con_totaldot_image_12.png,183.28003501250933,183.53044112950448,,,,,1,1,2024-10-11_16h33.49.368,visual,2024.1.5,119.39894618080346,
4_con_singledot,0.25,4,7,13,139,3,,,,4_con_singledot_image_12.png,183.63715263752093,183.8882508375071,,,,,1,1,2024-10-11_16h33.49.368,visual,2024.1.5,119.39894618080346,
4_con_totaldot,0.25,4,7,14,140,9,,,,4_con_totaldot_image_12.png,183.99681701251248,184.24705121251174,,,,,1,1,2024-10-11_16h33.49.368,visual,2024.1.5,119.39894618080346,
2_con_totaldot,0.25,2,7,15,141,7,,,,2_con_totaldot_image_12.png,184.35374326252204,184.6041841295053,,,,,1,1,2024-10-11_16h33.49.368,visual,2024.1.5,119.39894618080346,
5_con_totaldot,0.25,5,7,16,142,10,,,,5_con_totaldot_image_12.png,184.71307501251286,184.96345192051086,,,,,1,1,2024-10-11_16h33.49.368,visual,2024.1.5,119.39894618080346,
3_con_singledot,0.25,3,7,17,143,2,,,,3_con_singledot_image_12.png,185.07054330451356,185.32153379550147,1.wav,185.4231638330093,6.mp4,185.4231638330093,1,1,2024-10-11_16h33.49.368,visual,2024.1.5,119.39894618080346,
4_con_totaldot,0.25,4,8,0,144,9,,,,4_con_totaldot_image_38.png,187.25295015458835,187.5050551295106,,,,,1,1,2024-10-11_16h33.49.368,visual,2024.1.5,119.39894618080346,
1_con_totaldot,0.25,1,8,1,145,6,,,,1_con_totaldot_image_38.png,187.61317630451813,187.86389004550875,,,,,1,1,2024-10-11_16h33.49.368,visual,2024.1.5,119.39894618080346,
1_con_circum,0.25,1,8,2,146,12,,,,1_con_circum_image_38.png,187.97063905450923,188.2217808375106,,,,,1,1,2024-10-11_16h33.49.368,visual,2024.1.5,119.39894618080346,
6_con_circum,0.25,6,8,3,147,17,,,,6_con_circum_image_38.png,188.32986309551634,188.5809936295089,,,,,1,1,2024-10-11_16h33.49.368,visual,2024.1.5,119.39894618080346,
3_con_circum,0.25,3,8,4,148,14,,,,3_con_circum_image_38.png,188.687674054518,188.93802175450838,,,,,1,1,2024-10-11_16h33.49.368,visual,2024.1.5,119.39894618080346,
6_con_singledot,0.25,6,8,5,149,5,,,,6_con_singledot_image_38.png,189.04649526251015,189.29702200450703,,,,,1,1,2024-10-11_16h33.49.368,visual,2024.1.5,119.39894618080346,
3_con_totaldot,0.25,3,8,6,150,8,,,,3_con_totaldot_image_38.png,189.40375842952054,189.65539433750092,,,,,1,1,2024-10-11_16h33.49.368,visual,2024.1.5,119.39894618080346,
5_con_singledot,0.25,5,8,7,151,4,,,,5_con_singledot_image_38.png,189.76330442951294,190.01394800450072,,,,,1,1,2024-10-11_16h33.49.368,visual,2024.1.5,119.39894618080346,
2_con_totaldot,0.25,2,8,8,152,7,,,,2_con_totaldot_image_38.png,190.12073592951347,190.37138021251013,,,,,1,1,2024-10-11_16h33.49.368,visual,2024.1.5,119.39894618080346,
3_con_singledot,0.25,3,8,9,153,2,,,,3_con_singledot_image_38.png,190.48021330452175,190.73086658749963,,,,,1,1,2024-10-11_16h33.49.368,visual,2024.1.5,119.39894618080346,
6_con_totaldot,0.25,6,8,10,154,11,,,,6_con_totaldot_image_38.png,190.83767197051785,191.08822354550358,,,,,1,1,2024-10-11_16h33.49.368,visual,2024.1.5,119.39894618080346,
2_con_circum,0.25,2,8,11,155,13,,,,2_con_circum_image_38.png,191.19700122051873,191.44756958751242,,,,,1,1,2024-10-11_16h33.49.368,visual,2024.1.5,119.39894618080346,
4_con_singledot,0.25,4,8,12,156,3,,,,4_con_singledot_image_38.png,191.55433647051396,191.80468483750593,,,,,1,1,2024-10-11_16h33.49.368,visual,2024.1.5,119.39894618080346,
5_con_circum,0.25,5,8,13,157,16,,,,5_con_circum_image_38.png,191.91372709551652,192.16411317050807,,,,,1,1,2024-10-11_16h33.49.368,visual,2024.1.5,119.39894618080346,
1_con_singledot,0.25,1,8,14,158,0,,,,1_con_singledot_image_38.png,192.27075980451482,192.52136812951068,,,,,1,1,2024-10-11_16h33.49.368,visual,2024.1.5,119.39894618080346,
4_con_circum,0.25,4,8,15,159,15,,,,4_con_circum_image_38.png,192.6300800125231,192.88033492050891,,,,,1,1,2024-10-11_16h33.49.368,visual,2024.1.5,119.39894618080346,
2_con_singledot,0.25,2,8,16,160,1,,,,2_con_singledot_image_38.png,192.98710830452038,193.23801212951076,,,,,1,1,2024-10-11_16h33.49.368,visual,2024.1.5,119.39894618080346,
5_con_totaldot,0.25,5,8,17,161,10,,,,5_con_totaldot_image_38.png,193.3472925955197,193.59734929550615,1.wav,193.69681837499957,2.mp4,193.69681837499957,1,1,2024-10-11_16h33.49.368,visual,2024.1.5,119.39894618080346,
3_con_totaldot,0.25,3,9,0,162,8,,,,3_con_totaldot_image_10.png,195.53166044559623,195.7807175044989,,,,,1,1,2024-10-11_16h33.49.368,visual,2024.1.5,119.39894618080346,
4_con_totaldot,0.25,4,9,1,163,9,,,,4_con_totaldot_image_10.png,195.8875690125191,196.1385622955102,,,,,1,1,2024-10-11_16h33.49.368,visual,2024.1.5,119.39894618080346,
2_con_totaldot,0.25,2,9,2,164,7,,,,2_con_totaldot_image_10.png,196.24657613751188,196.50148942050583,,,,,1,1,2024-10-11_16h33.49.368,visual,2024.1.5,119.39894618080346,
5_con_singledot,0.25,5,9,3,165,4,,,,5_con_singledot_image_10.png,196.61059276252345,196.86446017049894,,,,,1,1,2024-10-11_16h33.49.368,visual,2024.1.5,119.39894618080346,
3_con_circum,0.25,3,9,4,166,14,,,,3_con_circum_image_10.png,196.97119988751948,197.2211718375009,,,,,1,1,2024-10-11_16h33.49.368,visual,2024.1.5,119.39894618080346,
1_con_circum,0.25,1,9,5,167,12,,,,1_con_circum_image_10.png,197.3300235955161,197.58069162950852,,,,,1,1,2024-10-11_16h33.49.368,visual,2024.1.5,119.39894618080346,
4_con_singledot,0.25,4,9,6,168,3,,,,4_con_singledot_image_10.png,197.68740609552188,197.93870262951242,,,,,1,1,2024-10-11_16h33.49.368,visual,2024.1.5,119.39894618080346,
5_con_totaldot,0.25,5,9,7,169,10,,,,5_con_totaldot_image_10.png,198.04633042951755,198.29759758749861,,,,,1,1,2024-10-11_16h33.49.368,visual,2024.1.5,119.39894618080346,
2_con_circum,0.25,2,9,8,170,13,,,,2_con_circum_image_10.png,198.40448467952083,198.65535367050035,,,,,1,1,2024-10-11_16h33.49.368,visual,2024.1.5,119.39894618080346,
6_con_circum,0.25,6,9,9,171,17,,,,6_con_circum_image_10.png,198.7633530545194,199.0144360454986,,,,,1,1,2024-10-11_16h33.49.368,visual,2024.1.5,119.39894618080346,
6_con_totaldot,0.25,6,9,10,172,11,,,,6_con_totaldot_image_10.png,199.1211617625144,199.37119858750958,,,,,1,1,2024-10-11_16h33.49.368,visual,2024.1.5,119.39894618080346,
4_con_circum,0.25,4,9,11,173,15,,,,4_con_circum_image_10.png,199.48036059551524,199.73036062949978,,,,,1,1,2024-10-11_16h33.49.368,visual,2024.1.5,119.39894618080346,
5_con_circum,0.25,5,9,12,174,16,,,,5_con_circum_image_10.png,199.8370843875222,200.08908596250404,,,,,1,1,2024-10-11_16h33.49.368,visual,2024.1.5,119.39894618080346,
6_con_singledot,0.25,6,9,13,175,5,,,,6_con_singledot_image_10.png,200.19672247052077,200.447406629505,,,,,1,1,2024-10-11_16h33.49.368,visual,2024.1.5,119.39894618080346,
3_con_singledot,0.25,3,9,14,176,2,,,,3_con_singledot_image_10.png,200.554148262518,200.80498292050908,,,,,1,1,2024-10-11_16h33.49.368,visual,2024.1.5,119.39894618080346,
1_con_totaldot,0.25,1,9,15,177,6,,,,1_con_totaldot_image_10.png,200.91370505451633,201.16449312949845,,,,,1,1,2024-10-11_16h33.49.368,visual,2024.1.5,119.39894618080346,
1_con_singledot,0.25,1,9,16,178,0,,,,1_con_singledot_image_10.png,201.27120084551862,201.52158821250197,,,,,1,1,2024-10-11_16h33.49.368,visual,2024.1.5,119.39894618080346,
2_con_singledot,0.25,2,9,17,179,1,,,,2_con_singledot_image_10.png,201.63032430451713,201.88076987951064,5.wav,201.9801620000071,5.mp4,201.9801620000071,1,1,2024-10-11_16h33.49.368,visual,2024.1.5,119.39894618080346,
6_con_circum,0.25,6,10,0,180,17,,,,6_con_circum_image_11.png,203.82734127959122,204.0811353795114,,,,,1,1,2024-10-11_16h33.49.368,visual,2024.1.5,119.39894618080346,
6_con_totaldot,0.25,6,10,1,181,11,,,,6_con_totaldot_image_11.png,204.18779405451497,204.43797162950506,,,,,1,1,2024-10-11_16h33.49.368,visual,2024.1.5,119.39894618080346,
3_con_totaldot,0.25,3,10,2,182,8,,,,3_con_totaldot_image_11.png,204.5475019295176,204.79713362949843,,,,,1,1,2024-10-11_16h33.49.368,visual,2024.1.5,119.39894618080346,
4_con_circum,0.25,4,10,3,183,15,,,,4_con_circum_image_11.png,204.90391697051237,205.15427900450305,,,,,1,1,2024-10-11_16h33.49.368,visual,2024.1.5,119.39894618080346,
5_con_circum,0.25,5,10,4,184,16,,,,5_con_circum_image_11.png,205.26363297051867,205.514468379505,,,,,1,1,2024-10-11_16h33.49.368,visual,2024.1.5,119.39894618080346,
1_con_circum,0.25,1,10,5,185,12,,,,1_con_circum_image_11.png,205.6212306795118,205.87159400450474,,,,,1,1,2024-10-11_16h33.49.368,visual,2024.1.5,119.39894618080346,
2_con_totaldot,0.25,2,10,6,186,7,,,,2_con_totaldot_image_11.png,205.9802904295124,206.23090967051104,,,,,1,1,2024-10-11_16h33.49.368,visual,2024.1.5,119.39894618080346,
1_con_singledot,0.25,1,10,7,187,0,,,,1_con_singledot_image_11.png,206.33690005451209,206.58859771251156,,,,,1,1,2024-10-11_16h33.49.368,visual,2024.1.5,119.39894618080346,
2_con_singledot,0.25,2,10,8,188,1,,,,2_con_singledot_image_11.png,206.69721426252218,206.9470780455129,,,,,1,1,2024-10-11_16h33.49.368,visual,2024.1.5,119.39894618080346,
4_con_totaldot,0.25,4,10,9,189,9,,,,4_con_totaldot_image_11.png,207.05407797051012,207.3045175455016,,,,,1,1,2024-10-11_16h33.49.368,visual,2024.1.5,119.39894618080346,
5_con_singledot,0.25,5,10,10,190,4,,,,5_con_singledot_image_11.png,207.4137465545122,207.66446604550293,,,,,1,1,2024-10-11_16h33.49.368,visual,2024.1.5,119.39894618080346,
5_con_totaldot,0.25,5,10,11,191,10,,,,5_con_totaldot_image_11.png,207.7711145545094,208.02166121250485,,,,,1,1,2024-10-11_16h33.49.368,visual,2024.1.5,119.39894618080346,
6_con_singledot,0.25,6,10,12,192,5,,,,6_con_singledot_image_11.png,208.13016092951003,208.38089296250547,,,,,1,1,2024-10-11_16h33.49.368,visual,2024.1.5,119.39894618080346,
4_con_singledot,0.25,4,10,13,193,3,,,,4_con_singledot_image_11.png,208.48761555451202,208.73787204549882,,,,,1,1,2024-10-11_16h33.49.368,visual,2024.1.5,119.39894618080346,
2_con_circum,0.25,2,10,14,194,13,,,,2_con_circum_image_11.png,208.84762230452034,209.09718825450983,,,,,1,1,2024-10-11_16h33.49.368,visual,2024.1.5,119.39894618080346,
3_con_singledot,0.25,3,10,15,195,2,,,,3_con_singledot_image_11.png,209.20385784551618,209.45473850451236,,,,,1,1,2024-10-11_16h33.49.368,visual,2024.1.5,119.39894618080346,
1_con_totaldot,0.25,1,10,16,196,6,,,,1_con_totaldot_image_11.png,209.56416584551917,209.81432379550535,,,,,1,1,2024-10-11_16h33.49.368,visual,2024.1.5,119.39894618080346,
3_con_circum,0.25,3,10,17,197,14,,,,3_con_circum_image_11.png,209.9209845545178,210.17127933750163,4.wav,210.27274891700654,13.mp4,210.27274891700654,1,1,2024-10-11_16h33.49.368,visual,2024.1.5,119.39894618080346,
1_con_circum,0.25,1,11,0,198,12,,,,1_con_circum_image_39.png,212.10069452959,212.35544975450904,,,,,1,1,2024-10-11_16h33.49.368,visual,2024.1.5,119.39894618080346,
5_con_totaldot,0.25,5,11,1,199,10,,,,5_con_totaldot_image_39.png,212.46366092951794,212.71438562951226,,,,,1,1,2024-10-11_16h33.49.368,visual,2024.1.5,119.39894618080346,
5_con_circum,0.25,5,11,2,200,16,,,,5_con_circum_image_39.png,212.821175929514,213.07217962950818,,,,,1,1,2024-10-11_16h33.49.368,visual,2024.1.5,119.39894618080346,
2_con_singledot,0.25,2,11,3,201,1,,,,2_con_singledot_image_39.png,213.1798651795165,213.43108967051086,,,,,1,1,2024-10-11_16h33.49.368,visual,2024.1.5,119.39894618080346,
2_con_totaldot,0.25,2,11,4,202,7,,,,2_con_totaldot_image_39.png,213.53772388751386,213.78735329550983,,,,,1,1,2024-10-11_16h33.49.368,visual,2024.1.5,119.39894618080346,
2_con_circum,0.25,2,11,5,203,13,,,,2_con_circum_image_39.png,213.89748780451774,214.14716108749855,,,,,1,1,2024-10-11_16h33.49.368,visual,2024.1.5,119.39894618080346,
3_con_totaldot,0.25,3,11,6,204,8,,,,3_con_totaldot_image_39.png,214.2540031795128,214.50528858750187,,,,,1,1,2024-10-11_16h33.49.368,visual,2024.1.5,119.39894618080346,
5_con_singledot,0.25,5,11,7,205,4,,,,5_con_singledot_image_39.png,214.6140721375181,214.86431192050514,,,,,1,1,2024-10-11_16h33.49.368,visual,2024.1.5,119.39894618080346,
6_con_circum,0.25,6,11,8,206,17,,,,6_con_circum_image_39.png,214.97109542952094,215.2216685874999,,,,,1,1,2024-10-11_16h33.49.368,visual,2024.1.5,119.39894618080346,
6_con_singledot,0.25,6,11,9,207,5,,,,6_con_singledot_image_39.png,215.33093267951918,215.5813593375031,,,,,1,1,2024-10-11_16h33.49.368,visual,2024.1.5,119.39894618080346,
4_con_circum,0.25,4,11,10,208,15,,,,4_con_circum_image_39.png,215.6896860545152,215.94730592050183,,,,,1,1,2024-10-11_16h33.49.368,visual,2024.1.5,119.39894618080346,
3_con_circum,0.25,3,11,11,209,14,,,,3_con_circum_image_39.png,216.0540274705185,216.30572283750809,,,,,1,1,2024-10-11_16h33.49.368,visual,2024.1.5,119.39894618080346,
4_con_totaldot,0.25,4,11,12,210,9,,,,4_con_totaldot_image_39.png,216.41367276252132,216.6639507545013,,,,,1,1,2024-10-11_16h33.49.368,visual,2024.1.5,119.39894618080346,
3_con_singledot,0.25,3,11,13,211,2,,,,3_con_singledot_image_39.png,216.7708407625236,217.02192283750338,,,,,1,1,2024-10-11_16h33.49.368,visual,2024.1.5,119.39894618080346,
6_con_totaldot,0.25,6,11,14,212,11,,,,6_con_totaldot_image_39.png,217.13039209551644,217.38120946249984,,,,,1,1,2024-10-11_16h33.49.368,visual,2024.1.5,119.39894618080346,
1_con_singledot,0.25,1,11,15,213,0,,,,1_con_singledot_image_39.png,217.4879453455127,217.73858796250425,,,,,1,1,2024-10-11_16h33.49.368,visual,2024.1.5,119.39894618080346,
4_con_singledot,0.25,4,11,16,214,3,,,,4_con_singledot_image_39.png,217.847444470512,218.0977632125112,,,,,1,1,2024-10-11_16h33.49.368,visual,2024.1.5,119.39894618080346,
1_con_totaldot,0.25,1,11,17,215,6,,,,1_con_totaldot_image_39.png,218.2052163875109,218.45483375451005,2.wav,218.55671925000206,4.mp4,218.55671925000206,1,1,2024-10-11_16h33.49.368,visual,2024.1.5,119.39894618080346,
6_con_circum,0.25,6,12,0,216,17,,,,6_con_circum_image_62.png,220.39393298759535,220.64791996249988,,,,,1,1,2024-10-11_16h33.49.368,visual,2024.1.5,119.39894618080346,
2_con_singledot,0.25,2,12,1,217,1,,,,2_con_singledot_image_62.png,220.75472930451215,221.0050125875103,,,,,1,1,2024-10-11_16h33.49.368,visual,2024.1.5,119.39894618080346,
4_con_circum,0.25,4,12,2,218,15,,,,4_con_circum_image_62.png,221.11390422052355,221.36496808750672,,,,,1,1,2024-10-11_16h33.49.368,visual,2024.1.5,119.39894618080346,
5_con_circum,0.25,5,12,3,219,16,,,,5_con_circum_image_62.png,221.47175617951726,221.72218379551197,,,,,1,1,2024-10-11_16h33.49.368,visual,2024.1.5,119.39894618080346,
3_con_singledot,0.25,3,12,4,220,2,,,,3_con_singledot_image_62.png,221.83128092952248,222.08089500450006,,,,,1,1,2024-10-11_16h33.49.368,visual,2024.1.5,119.39894618080346,
4_con_totaldot,0.25,4,12,5,221,9,,,,4_con_totaldot_image_62.png,222.18788072051248,222.4388294625067,,,,,1,1,2024-10-11_16h33.49.368,visual,2024.1.5,119.39894618080346,
1_con_totaldot,0.25,1,12,6,222,6,,,,1_con_totaldot_image_62.png,222.54741188751942,222.79794412949997,,,,,1,1,2024-10-11_16h33.49.368,visual,2024.1.5,119.39894618080346,
1_con_singledot,0.25,1,12,7,223,0,,,,1_con_singledot_image_62.png,222.9047893045121,223.15530979550095,,,,,1,1,2024-10-11_16h33.49.368,visual,2024.1.5,119.39894618080346,
2_con_totaldot,0.25,2,12,8,224,7,,,,2_con_totaldot_image_62.png,223.2643326375168,223.51473825450813,,,,,1,1,2024-10-11_16h33.49.368,visual,2024.1.5,119.39894618080346,
3_con_circum,0.25,3,12,9,225,14,,,,3_con_circum_image_62.png,223.62147238752223,223.87205646250806,,,,,1,1,2024-10-11_16h33.49.368,visual,2024.1.5,119.39894618080346,
1_con_circum,0.25,1,12,10,226,12,,,,1_con_circum_image_62.png,223.98081051251793,224.23123212950014,,,,,1,1,2024-10-11_16h33.49.368,visual,2024.1.5,119.39894618080346,
2_con_circum,0.25,2,12,11,227,13,,,,2_con_circum_image_62.png,224.33793359551638,224.59870908751037,,,,,1,1,2024-10-11_16h33.49.368,visual,2024.1.5,119.39894618080346,
3_con_totaldot,0.25,3,12,12,228,8,,,,3_con_totaldot_image_62.png,224.7145690545207,224.96459479551123,,,,,1,1,2024-10-11_16h33.49.368,visual,2024.1.5,119.39894618080346,
5_con_totaldot,0.25,5,12,13,229,10,,,,5_con_totaldot_image_62.png,225.07134642951715,225.32270633750596,,,,,1,1,2024-10-11_16h33.49.368,visual,2024.1.5,119.39894618080346,
4_con_singledot,0.25,4,12,14,230,3,,,,4_con_singledot_image_62.png,225.4306987205113,225.68088875450195,,,,,1,1,2024-10-11_16h33.49.368,visual,2024.1.5,119.39894618080346,
6_con_singledot,0.25,6,12,15,231,5,,,,6_con_singledot_image_62.png,225.78753959551105,226.03873087950052,,,,,1,1,2024-10-11_16h33.49.368,visual,2024.1.5,119.39894618080346,
5_con_singledot,0.25,5,12,16,232,4,,,,5_con_singledot_image_62.png,226.14762701251894,226.39806912951173,,,,,1,1,2024-10-11_16h33.49.368,visual,2024.1.5,119.39894618080346,
6_con_totaldot,0.25,6,12,17,233,11,,,,6_con_totaldot_image_62.png,226.50473688751518,226.75527992051212,5.wav,226.85669320799934,4.mp4,226.85669320799934,1,1,2024-10-11_16h33.49.368,visual,2024.1.5,119.39894618080346,
4_con_circum,0.25,4,13,0,234,15,,,,4_con_circum_image_63.png,228.70799665459492,228.96479037950922,,,,,1,1,2024-10-11_16h33.49.368,visual,2024.1.5,119.39894618080346,
6_con_totaldot,0.25,6,13,1,235,11,,,,6_con_totaldot_image_63.png,229.07165001251852,229.32267058751023,,,,,1,1,2024-10-11_16h33.49.368,visual,2024.1.5,119.39894618080346,
4_con_singledot,0.25,4,13,2,236,3,,,,4_con_singledot_image_63.png,229.43076509552193,229.68147721250426,,,,,1,1,2024-10-11_16h33.49.368,visual,2024.1.5,119.39894618080346,
2_con_singledot,0.25,2,13,3,237,1,,,,2_con_singledot_image_63.png,229.78957997052058,230.0391363795032,,,,,1,1,2024-10-11_16h33.49.368,visual,2024.1.5,119.39894618080346,
1_con_circum,0.25,1,13,4,238,12,,,,1_con_circum_image_63.png,230.14765676251264,230.3979723375058,,,,,1,1,2024-10-11_16h33.49.368,visual,2024.1.5,119.39894618080346,
2_con_totaldot,0.25,2,13,5,239,7,,,,2_con_totaldot_image_63.png,230.5047805545095,230.75547796250322,,,,,1,1,2024-10-11_16h33.49.368,visual,2024.1.5,119.39894618080346,
5_con_circum,0.25,5,13,6,240,16,,,,5_con_circum_image_63.png,230.86429572052148,231.11439942050202,,,,,1,1,2024-10-11_16h33.49.368,visual,2024.1.5,119.39894618080346,
1_con_singledot,0.25,1,13,7,241,0,,,,1_con_singledot_image_63.png,231.2224260955176,231.4715626295045,,,,,1,1,2024-10-11_16h33.49.368,visual,2024.1.5,119.39894618080346,
3_con_totaldot,0.25,3,13,8,242,8,,,,3_con_totaldot_image_63.png,231.58131167950924,231.83131508750085,,,,,1,1,2024-10-11_16h33.49.368,visual,2024.1.5,119.39894618080346,
3_con_singledot,0.25,3,13,9,243,2,,,,3_con_singledot_image_63.png,231.9382588045177,232.18910342050077,,,,,1,1,2024-10-11_16h33.49.368,visual,2024.1.5,119.39894618080346,
6_con_singledot,0.25,6,13,10,244,5,,,,6_con_singledot_image_63.png,232.29787463752146,232.54804871249945,,,,,1,1,2024-10-11_16h33.49.368,visual,2024.1.5,119.39894618080346,
1_con_totaldot,0.25,1,13,11,245,6,,,,1_con_totaldot_image_63.png,232.6547534705227,232.90515762949946,,,,,1,1,2024-10-11_16h33.49.368,visual,2024.1.5,119.39894618080346,
5_con_singledot,0.25,5,13,12,246,4,,,,5_con_singledot_image_63.png,233.01475742951735,233.26477425450577,,,,,1,1,2024-10-11_16h33.49.368,visual,2024.1.5,119.39894618080346,
4_con_totaldot,0.25,4,13,13,247,9,,,,4_con_totaldot_image_63.png,233.3714406375133,233.622302920511,,,,,1,1,2024-10-11_16h33.49.368,visual,2024.1.5,119.39894618080346,
6_con_circum,0.25,6,13,14,248,17,,,,6_con_circum_image_63.png,233.73121363751707,233.9815754624986,,,,,1,1,2024-10-11_16h33.49.368,visual,2024.1.5,119.39894618080346,
3_con_circum,0.25,3,13,15,249,14,,,,3_con_circum_image_63.png,234.08838476251404,234.3384246705071,,,,,1,1,2024-10-11_16h33.49.368,visual,2024.1.5,119.39894618080346,
5_con_totaldot,0.25,5,13,16,250,10,,,,5_con_totaldot_image_63.png,234.44743680451066,234.6988777955092,,,,,1,1,2024-10-11_16h33.49.368,visual,2024.1.5,119.39894618080346,
2_con_circum,0.25,2,13,17,251,13,,,,2_con_circum_image_63.png,234.8072352625226,235.0654739205027,3.wav,235.16650416700577,2.mp4,235.16650416700577,1,1,2024-10-11_16h33.49.368,visual,2024.1.5,119.39894618080346,
4_con_singledot,0.25,4,14,0,252,3,,,,4_con_singledot_image_61.png,237.01057723759152,237.26484346251237,,,,,1,1,2024-10-11_16h33.49.368,visual,2024.1.5,119.39894618080346,
4_con_totaldot,0.25,4,14,1,253,9,,,,4_con_totaldot_image_61.png,237.37108230451705,237.62243487950474,,,,,1,1,2024-10-11_16h33.49.368,visual,2024.1.5,119.39894618080346,
1_con_totaldot,0.25,1,14,2,254,6,,,,1_con_totaldot_image_61.png,237.7312116375164,237.98154104550196,,,,,1,1,2024-10-11_16h33.49.368,visual,2024.1.5,119.39894618080346,
1_con_singledot,0.25,1,14,3,255,0,,,,1_con_singledot_image_61.png,238.08826376250946,238.33889604550205,,,,,1,1,2024-10-11_16h33.49.368,visual,2024.1.5,119.39894618080346,
1_con_circum,0.25,1,14,4,256,12,,,,1_con_circum_image_61.png,238.4474073455116,238.69886062950246,,,,,1,1,2024-10-11_16h33.49.368,visual,2024.1.5,119.39894618080346,
3_con_singledot,0.25,3,14,5,257,2,,,,3_con_singledot_image_61.png,238.80729584552174,239.06534954550153,,,,,1,1,2024-10-11_16h33.49.368,visual,2024.1.5,119.39894618080346,
5_con_totaldot,0.25,5,14,6,258,10,,,,5_con_totaldot_image_61.png,239.17299930452137,239.43237654550177,,,,,1,1,2024-10-11_16h33.49.368,visual,2024.1.5,119.39894618080346,
4_con_circum,0.25,4,14,7,259,15,,,,4_con_circum_image_61.png,239.5411198045098,239.79790350451077,,,,,1,1,2024-10-11_16h33.49.368,visual,2024.1.5,119.39894618080346,
5_con_singledot,0.25,5,14,8,260,4,,,,5_con_singledot_image_61.png,239.90639451251482,240.15571842051287,,,,,1,1,2024-10-11_16h33.49.368,visual,2024.1.5,119.39894618080346,
3_con_totaldot,0.25,3,14,9,261,8,,,,3_con_totaldot_image_61.png,240.26378876252275,240.51484525450797,,,,,1,1,2024-10-11_16h33.49.368,visual,2024.1.5,119.39894618080346,
3_con_circum,0.25,3,14,10,262,14,,,,3_con_circum_image_61.png,240.62165401252278,240.87282887950715,,,,,1,1,2024-10-11_16h33.49.368,visual,2024.1.5,119.39894618080346,
6_con_circum,0.25,6,14,11,263,17,,,,6_con_circum_image_61.png,240.98039926251514,241.2319499625126,,,,,1,1,2024-10-11_16h33.49.368,visual,2024.1.5,119.39894618080346,
2_con_totaldot,0.25,2,14,12,264,7,,,,2_con_totaldot_image_61.png,241.3387218455231,241.5885771295114,,,,,1,1,2024-10-11_16h33.49.368,visual,2024.1.5,119.39894618080346,
2_con_circum,0.25,2,14,13,265,13,,,,2_con_circum_image_61.png,241.69814330452064,241.94846550450603,,,,,1,1,2024-10-11_16h33.49.368,visual,2024.1.5,119.39894618080346,
5_con_circum,0.25,5,14,14,266,16,,,,5_con_circum_image_61.png,242.05517297050974,242.3056364205084,,,,,1,1,2024-10-11_16h33.49.368,visual,2024.1.5,119.39894618080346,
2_con_singledot,0.25,2,14,15,267,1,,,,2_con_singledot_image_61.png,242.41467763751862,242.66495242051025,,,,,1,1,2024-10-11_16h33.49.368,visual,2024.1.5,119.39894618080346,
6_con_singledot,0.25,6,14,16,268,5,,,,6_con_singledot_image_61.png,242.7717191375181,243.02185337950942,,,,,1,1,2024-10-11_16h33.49.368,visual,2024.1.5,119.39894618080346,
6_con_totaldot,0.25,6,14,17,269,11,,,,6_con_totaldot_image_61.png,243.1309995125106,243.3819504625106,3.wav,243.4814973330067,7.mp4,243.4814973330067,1,1,2024-10-11_16h33.49.368,visual,2024.1.5,119.39894618080346,
5_con_circum,0.25,5,15,0,270,16,,,,5_con_circum_image_49.png,245.302171654586,245.55594196250314,,,,,1,1,2024-10-11_16h33.49.368,visual,2024.1.5,119.39894618080346,
3_con_singledot,0.25,3,15,1,271,2,,,,3_con_singledot_image_49.png,245.66386176251982,245.91464012951184,,,,,1,1,2024-10-11_16h33.49.368,visual,2024.1.5,119.39894618080346,
2_con_totaldot,0.25,2,15,2,272,7,,,,2_con_totaldot_image_49.png,246.02141697051994,246.27289429551166,,,,,1,1,2024-10-11_16h33.49.368,visual,2024.1.5,119.39894618080346,
4_con_totaldot,0.25,4,15,3,273,9,,,,4_con_totaldot_image_49.png,246.3808999295201,246.63170312950098,,,,,1,1,2024-10-11_16h33.49.368,visual,2024.1.5,119.39894618080346,
5_con_totaldot,0.25,5,15,4,274,10,,,,5_con_totaldot_image_49.png,246.73835392951733,246.98916154550972,,,,,1,1,2024-10-11_16h33.49.368,visual,2024.1.5,119.39894618080346,
6_con_circum,0.25,6,15,5,275,17,,,,6_con_circum_image_49.png,247.09852376251948,247.34831775451022,,,,,1,1,2024-10-11_16h33.49.368,visual,2024.1.5,119.39894618080346,
6_con_totaldot,0.25,6,15,6,276,11,,,,6_con_totaldot_image_49.png,247.45504272051622,247.70615579549923,,,,,1,1,2024-10-11_16h33.49.368,visual,2024.1.5,119.39894618080346,
3_con_circum,0.25,3,15,7,277,14,,,,3_con_circum_image_49.png,247.81453413751152,248.06565621250485,,,,,1,1,2024-10-11_16h33.49.368,visual,2024.1.5,119.39894618080346,
4_con_singledot,0.25,4,15,8,278,3,,,,4_con_singledot_image_49.png,248.17246467951045,248.42217396250345,,,,,1,1,2024-10-11_16h33.49.368,visual,2024.1.5,119.39894618080346,
4_con_circum,0.25,4,15,9,279,15,,,,4_con_circum_image_49.png,248.53126217952232,248.78197308750242,,,,,1,1,2024-10-11_16h33.49.368,visual,2024.1.5,119.39894618080346,
2_con_singledot,0.25,2,15,10,280,1,,,,2_con_singledot_image_49.png,248.88883176251548,249.13944971251186,,,,,1,1,2024-10-11_16h33.49.368,visual,2024.1.5,119.39894618080346,
5_con_singledot,0.25,5,15,11,281,4,,,,5_con_singledot_image_49.png,249.2480628455145,249.4989320875,,,,,1,1,2024-10-11_16h33.49.368,visual,2024.1.5,119.39894618080346,
3_con_totaldot,0.25,3,15,12,282,8,,,,3_con_totaldot_image_49.png,249.60761759551534,249.86554150450394,,,,,1,1,2024-10-11_16h33.49.368,visual,2024.1.5,119.39894618080346,
1_con_singledot,0.25,1,15,13,283,0,,,,1_con_singledot_image_49.png,249.97401788751304,250.23172008750845,,,,,1,1,2024-10-11_16h33.49.368,visual,2024.1.5,119.39894618080346,
1_con_circum,0.25,1,15,14,284,12,,,,1_con_circum_image_49.png,250.33842426250922,250.58884850451142,,,,,1,1,2024-10-11_16h33.49.368,visual,2024.1.5,119.39894618080346,
1_con_totaldot,0.25,1,15,15,285,6,,,,1_con_totaldot_image_49.png,250.69775426251582,250.94894583749993,,,,,1,1,2024-10-11_16h33.49.368,visual,2024.1.5,119.39894618080346,
2_con_circum,0.25,2,15,16,286,13,,,,2_con_circum_image_49.png,251.0567275125126,251.30604254550127,,,,,1,1,2024-10-11_16h33.49.368,visual,2024.1.5,119.39894618080346,
6_con_singledot,0.25,6,15,17,287,5,,,,6_con_singledot_image_49.png,251.41496838752064,251.66527771250986,3.wav,251.76504374999786,14.mp4,251.76504374999786,1,1,2024-10-11_16h33.49.368,visual,2024.1.5,119.39894618080346,
2_con_totaldot,0.25,2,16,0,288,7,,,,2_con_totaldot_image_8.png,253.5935650705884,253.84811787950167,,,,,1,1,2024-10-11_16h33.49.368,visual,2024.1.5,119.39894618080346,
6_con_totaldot,0.25,6,16,1,289,11,,,,6_con_totaldot_image_8.png,253.95527617951157,254.20598233749917,,,,,1,1,2024-10-11_16h33.49.368,visual,2024.1.5,119.39894618080346,
4_con_totaldot,0.25,4,16,2,290,9,,,,4_con_totaldot_image_8.png,254.3144152625231,254.5653829625051,,,,,1,1,2024-10-11_16h33.49.368,visual,2024.1.5,119.39894618080346,
3_con_singledot,0.25,3,16,3,291,2,,,,3_con_singledot_image_8.png,254.67218738751254,254.92200971250423,,,,,1,1,2024-10-11_16h33.49.368,visual,2024.1.5,119.39894618080346,
6_con_singledot,0.25,6,16,4,292,5,,,,6_con_singledot_image_8.png,255.03165222051612,255.2818356705073,,,,,1,1,2024-10-11_16h33.49.368,visual,2024.1.5,119.39894618080346,
1_con_circum,0.25,1,16,5,293,12,,,,1_con_circum_image_8.png,255.3886340125231,255.63914542051208,,,,,1,1,2024-10-11_16h33.49.368,visual,2024.1.5,119.39894618080346,
3_con_totaldot,0.25,3,16,6,294,8,,,,3_con_totaldot_image_8.png,255.74732513751078,255.99905754551293,,,,,1,1,2024-10-11_16h33.49.368,visual,2024.1.5,119.39894618080346,
4_con_circum,0.25,4,16,7,295,15,,,,4_con_circum_image_8.png,256.10599534551733,256.3554744625115,,,,,1,1,2024-10-11_16h33.49.368,visual,2024.1.5,119.39894618080346,
1_con_totaldot,0.25,1,16,8,296,6,,,,1_con_totaldot_image_8.png,256.4644256795204,256.71473608750676,,,,,1,1,2024-10-11_16h33.49.368,visual,2024.1.5,119.39894618080346,
1_con_singledot,0.25,1,16,9,297,0,,,,1_con_singledot_image_8.png,256.82143830451827,257.07273092050747,,,,,1,1,2024-10-11_16h33.49.368,visual,2024.1.5,119.39894618080346,
6_con_circum,0.25,6,16,10,298,17,,,,6_con_circum_image_8.png,257.18101909552064,257.43226692051104,,,,,1,1,2024-10-11_16h33.49.368,visual,2024.1.5,119.39894618080346,
3_con_circum,0.25,3,16,11,299,14,,,,3_con_circum_image_8.png,257.53920792951834,257.78940879550356,,,,,1,1,2024-10-11_16h33.49.368,visual,2024.1.5,119.39894618080346,
2_con_singledot,0.25,2,16,12,300,1,,,,2_con_singledot_image_8.png,257.8974810125132,258.14803554551037,,,,,1,1,2024-10-11_16h33.49.368,visual,2024.1.5,119.39894618080346,
5_con_singledot,0.25,5,16,13,301,4,,,,5_con_singledot_image_8.png,258.2548772625218,258.5064622955077,,,,,1,1,2024-10-11_16h33.49.368,visual,2024.1.5,119.39894618080346,
5_con_circum,0.25,5,16,14,302,16,,,,5_con_circum_image_8.png,258.61465238751265,258.86516329551233,,,,,1,1,2024-10-11_16h33.49.368,visual,2024.1.5,119.39894618080346,
5_con_totaldot,0.25,5,16,15,303,10,,,,5_con_totaldot_image_8.png,258.97200417951393,259.2229812545091,,,,,1,1,2024-10-11_16h33.49.368,visual,2024.1.5,119.39894618080346,
2_con_circum,0.25,2,16,16,304,13,,,,2_con_circum_image_8.png,259.3311160955113,259.58234800450447,,,,,1,1,2024-10-11_16h33.49.368,visual,2024.1.5,119.39894618080346,
4_con_singledot,0.25,4,16,17,305,3,,,,4_con_singledot_image_8.png,259.69067651252266,259.9490732125094,1.wav,260.05063629199867,7.mp4,260.05063629199867,1,1,2024-10-11_16h33.49.368,visual,2024.1.5,119.39894618080346,
3_con_totaldot,0.25,3,17,0,306,8,,,,3_con_totaldot_image_9.png,261.88547840459216,262.139121295503,,,,,1,1,2024-10-11_16h33.49.368,visual,2024.1.5,119.39894618080346,
1_con_singledot,0.25,1,17,1,307,0,,,,1_con_singledot_image_9.png,262.2476834295143,262.4986560045043,,,,,1,1,2024-10-11_16h33.49.368,visual,2024.1.5,119.39894618080346,
4_con_totaldot,0.25,4,17,2,308,9,,,,4_con_totaldot_image_9.png,262.6053576795152,262.8561447545042,,,,,1,1,2024-10-11_16h33.49.368,visual,2024.1.5,119.39894618080346,
2_con_singledot,0.25,2,17,3,309,1,,,,2_con_singledot_image_9.png,262.96449309551684,263.2154792545014,,,,,1,1,2024-10-11_16h33.49.368,visual,2024.1.5,119.39894618080346,
6_con_circum,0.25,6,17,4,310,17,,,,6_con_circum_image_9.png,263.32240517951726,263.5726765455009,,,,,1,1,2024-10-11_16h33.49.368,visual,2024.1.5,119.39894618080346,
1_con_circum,0.25,1,17,5,311,12,,,,1_con_circum_image_9.png,263.6815837205126,263.9315516294999,,,,,1,1,2024-10-11_16h33.49.368,visual,2024.1.5,119.39894618080346,
2_con_totaldot,0.25,2,17,6,312,7,,,,2_con_totaldot_image_9.png,264.0384253045108,264.28892162951234,,,,,1,1,2024-10-11_16h33.49.368,visual,2024.1.5,119.39894618080346,
5_con_totaldot,0.25,5,17,7,313,10,,,,5_con_totaldot_image_9.png,264.39870097052193,264.64819550449903,,,,,1,1,2024-10-11_16h33.49.368,visual,2024.1.5,119.39894618080346,
1_con_totaldot,0.25,1,17,8,314,6,,,,1_con_totaldot_image_9.png,264.7548846795166,265.00554712950253,,,,,1,1,2024-10-11_16h33.49.368,visual,2024.1.5,119.39894618080346,
5_con_circum,0.25,5,17,9,315,16,,,,5_con_circum_image_9.png,265.11486051251126,265.3680056295096,,,,,1,1,2024-10-11_16h33.49.368,visual,2024.1.5,119.39894618080346,
4_con_circum,0.25,4,17,10,316,15,,,,4_con_circum_image_9.png,265.4754600545188,265.7306015875045,,,,,1,1,2024-10-11_16h33.49.368,visual,2024.1.5,119.39894618080346,
3_con_circum,0.25,3,17,11,317,14,,,,3_con_circum_image_9.png,265.8401966795122,266.09048825451174,,,,,1,1,2024-10-11_16h33.49.368,visual,2024.1.5,119.39894618080346,
2_con_circum,0.25,2,17,12,318,13,,,,2_con_circum_image_9.png,266.19876276251165,266.44879917050713,,,,,1,1,2024-10-11_16h33.49.368,visual,2024.1.5,119.39894618080346,
3_con_singledot,0.25,3,17,13,319,2,,,,3_con_singledot_image_9.png,266.5556264295214,266.8065965045069,,,,,1,1,2024-10-11_16h33.49.368,visual,2024.1.5,119.39894618080346,
6_con_totaldot,0.25,6,17,14,320,11,,,,6_con_totaldot_image_9.png,266.9149404295226,267.1654483795108,,,,,1,1,2024-10-11_16h33.49.368,visual,2024.1.5,119.39894618080346,
6_con_singledot,0.25,6,17,15,321,5,,,,6_con_singledot_image_9.png,267.27222392951666,267.5223038795055,,,,,1,1,2024-10-11_16h33.49.368,visual,2024.1.5,119.39894618080346,
5_con_singledot,0.25,5,17,16,322,4,,,,5_con_singledot_image_9.png,267.63185892951736,267.88217146250537,,,,,1,1,2024-10-11_16h33.49.368,visual,2024.1.5,119.39894618080346,
4_con_singledot,0.25,4,17,17,323,3,,,,4_con_singledot_image_9.png,267.9904077205196,268.2416560045065,5.wav,268.3434670830029,11.mp4,268.3434670830029,1,1,2024-10-11_16h33.49.368,visual,2024.1.5,119.39894618080346,
5_con_circum,0.25,5,18,0,324,16,,,,5_con_circum_image_48.png,270.18391644559745,270.4392252545047,,,,,1,1,2024-10-11_16h33.49.368,visual,2024.1.5,119.39894618080346,
3_con_singledot,0.25,3,18,1,325,2,,,,3_con_singledot_image_48.png,270.54756013751324,270.79888967050357,,,,,1,1,2024-10-11_16h33.49.368,visual,2024.1.5,119.39894618080346,
6_con_circum,0.25,6,18,2,326,17,,,,6_con_circum_image_48.png,270.90566034551597,271.15663312950056,,,,,1,1,2024-10-11_16h33.49.368,visual,2024.1.5,119.39894618080346,
2_con_circum,0.25,2,18,3,327,13,,,,2_con_circum_image_48.png,271.26492776252275,271.51548387951044,,,,,1,1,2024-10-11_16h33.49.368,visual,2024.1.5,119.39894618080346,
6_con_singledot,0.25,6,18,4,328,5,,,,6_con_singledot_image_48.png,271.6221971795225,271.87333933751216,,,,,1,1,2024-10-11_16h33.49.368,visual,2024.1.5,119.39894618080346,
3_con_totaldot,0.25,3,18,5,329,8,,,,3_con_totaldot_image_48.png,271.9809068045201,272.2318650045025,,,,,1,1,2024-10-11_16h33.49.368,visual,2024.1.5,119.39894618080346,
5_con_singledot,0.25,5,18,6,330,4,,,,5_con_singledot_image_48.png,272.33899905451693,272.5896488795086,,,,,1,1,2024-10-11_16h33.49.368,visual,2024.1.5,119.39894618080346,
1_con_singledot,0.25,1,18,7,331,0,,,,1_con_singledot_image_48.png,272.6980843875121,272.9488482124987,,,,,1,1,2024-10-11_16h33.49.368,visual,2024.1.5,119.39894618080346,
2_con_singledot,0.25,2,18,8,332,1,,,,2_con_singledot_image_48.png,273.05553013751927,273.30635642050476,,,,,1,1,2024-10-11_16h33.49.368,visual,2024.1.5,119.39894618080346,
4_con_totaldot,0.25,4,18,9,333,9,,,,4_con_totaldot_image_48.png,273.415728512517,273.6652688375005,,,,,1,1,2024-10-11_16h33.49.368,visual,2024.1.5,119.39894618080346,
3_con_circum,0.25,3,18,10,334,14,,,,3_con_circum_image_48.png,273.7721607625194,274.0228977545019,,,,,1,1,2024-10-11_16h33.49.368,visual,2024.1.5,119.39894618080346,
4_con_circum,0.25,4,18,11,335,15,,,,4_con_circum_image_48.png,274.131301970518,274.38244575450955,,,,,1,1,2024-10-11_16h33.49.368,visual,2024.1.5,119.39894618080346,
1_con_totaldot,0.25,1,18,12,336,6,,,,1_con_totaldot_image_48.png,274.4891949295183,274.74029412951205,,,,,1,1,2024-10-11_16h33.49.368,visual,2024.1.5,119.39894618080346,
2_con_totaldot,0.25,2,18,13,337,7,,,,2_con_totaldot_image_48.png,274.8494958045107,275.10629725450127,,,,,1,1,2024-10-11_16h33.49.368,visual,2024.1.5,119.39894618080346,
4_con_singledot,0.25,4,18,14,338,3,,,,4_con_singledot_image_48.png,275.2149222625216,275.4651833375072,,,,,1,1,2024-10-11_16h33.49.368,visual,2024.1.5,119.39894618080346,
5_con_totaldot,0.25,5,18,15,339,10,,,,5_con_totaldot_image_48.png,275.57204551251783,275.82301954550786,,,,,1,1,2024-10-11_16h33.49.368,visual,2024.1.5,119.39894618080346,
6_con_totaldot,0.25,6,18,16,340,11,,,,6_con_totaldot_image_48.png,275.93138659551045,276.1842437124986,,,,,1,1,2024-10-11_16h33.49.368,visual,2024.1.5,119.39894618080346,
1_con_circum,0.25,1,18,17,341,12,,,,1_con_circum_image_48.png,276.29603263752364,276.55131283749944,1.wav,276.651555458011,13.mp4,276.651555458011,1,1,2024-10-11_16h33.49.368,visual,2024.1.5,119.39894618080346,
2_con_circum,0.25,2,19,0,342,13,,,,2_con_circum_image_60.png,278.4814697375929,278.7323316295049,,,,,1,1,2024-10-11_16h33.49.368,visual,2024.1.5,119.39894618080346,
5_con_circum,0.25,5,19,1,343,16,,,,5_con_circum_image_60.png,278.83916034551515,279.0898043794994,,,,,1,1,2024-10-11_16h33.49.368,visual,2024.1.5,119.39894618080346,
4_con_circum,0.25,4,19,2,344,15,,,,4_con_circum_image_60.png,279.19815297051395,279.44970487949905,,,,,1,1,2024-10-11_16h33.49.368,visual,2024.1.5,119.39894618080346,
2_con_totaldot,0.25,2,19,3,345,7,,,,2_con_totaldot_image_60.png,279.556541595512,279.80608962950356,,,,,1,1,2024-10-11_16h33.49.368,visual,2024.1.5,119.39894618080346,
1_con_circum,0.25,1,19,4,346,12,,,,1_con_circum_image_60.png,279.9143680125184,280.16562292050804,,,,,1,1,2024-10-11_16h33.49.368,visual,2024.1.5,119.39894618080346,
3_con_singledot,0.25,3,19,5,347,2,,,,3_con_singledot_image_60.png,280.27224001251165,280.5227899205027,,,,,1,1,2024-10-11_16h33.49.368,visual,2024.1.5,119.39894618080346,
2_con_singledot,0.25,2,19,6,348,1,,,,2_con_singledot_image_60.png,280.6317885125231,280.8822884625086,,,,,1,1,2024-10-11_16h33.49.368,visual,2024.1.5,119.39894618080346,
1_con_totaldot,0.25,1,19,7,349,6,,,,1_con_totaldot_image_60.png,280.9891213875148,281.23996162951227,,,,,1,1,2024-10-11_16h33.49.368,visual,2024.1.5,119.39894618080346,
6_con_totaldot,0.25,6,19,8,350,11,,,,6_con_totaldot_image_60.png,281.3485430545174,281.5987027125055,,,,,1,1,2024-10-11_16h33.49.368,visual,2024.1.5,119.39894618080346,
5_con_totaldot,0.25,5,19,9,351,10,,,,5_con_totaldot_image_60.png,281.7055475125148,281.956464629501,,,,,1,1,2024-10-11_16h33.49.368,visual,2024.1.5,119.39894618080346,
5_con_singledot,0.25,5,19,10,352,4,,,,5_con_singledot_image_60.png,282.0654833455105,282.31592992051156,,,,,1,1,2024-10-11_16h33.49.368,visual,2024.1.5,119.39894618080346,
1_con_singledot,0.25,1,19,11,353,0,,,,1_con_singledot_image_60.png,282.42264638751516,282.67259296250705,,,,,1,1,2024-10-11_16h33.49.368,visual,2024.1.5,119.39894618080346,
4_con_singledot,0.25,4,19,12,354,3,,,,4_con_singledot_image_60.png,282.7822553045175,283.03243496251235,,,,,1,1,2024-10-11_16h33.49.368,visual,2024.1.5,119.39894618080346,
6_con_singledot,0.25,6,19,13,355,5,,,,6_con_singledot_image_60.png,283.1393033045228,283.3903199205059,,,,,1,1,2024-10-11_16h33.49.368,visual,2024.1.5,119.39894618080346,
4_con_totaldot,0.25,4,19,14,356,9,,,,4_con_totaldot_image_60.png,283.49933713752256,283.7493947955052,,,,,1,1,2024-10-11_16h33.49.368,visual,2024.1.5,119.39894618080346,
6_con_circum,0.25,6,19,15,357,17,,,,6_con_circum_image_60.png,283.8565527625237,284.10598296251266,,,,,1,1,2024-10-11_16h33.49.368,visual,2024.1.5,119.39894618080346,
3_con_circum,0.25,3,19,16,358,14,,,,3_con_circum_image_60.png,284.2150996375189,284.46530517050707,,,,,1,1,2024-10-11_16h33.49.368,visual,2024.1.5,119.39894618080346,
3_con_totaldot,0.25,3,19,17,359,8,,,,3_con_totaldot_image_60.png,284.57201588751053,284.8248806294985,2.wav,284.9249024169985,13.mp4,284.9249024169985,1,1,2024-10-11_16h33.49.368,visual,2024.1.5,119.39894618080346,
6_con_singledot,0.25,6,20,0,360,5,,,,6_con_singledot_image_58.png,286.75696848758673,287.00609946250626,,,,,1,1,2024-10-11_16h33.49.368,visual,2024.1.5,119.39894618080346,
1_con_circum,0.25,1,20,1,361,12,,,,1_con_circum_image_58.png,287.11526930452095,287.365954045509,,,,,1,1,2024-10-11_16h33.49.368,visual,2024.1.5,119.39894618080346,
2_con_totaldot,0.25,2,20,2,362,7,,,,2_con_totaldot_image_58.png,287.4726261795208,287.72321025450657,,,,,1,1,2024-10-11_16h33.49.368,visual,2024.1.5,119.39894618080346,
3_con_singledot,0.25,3,20,3,363,2,,,,3_con_singledot_image_58.png,287.8311883045157,288.081929420511,,,,,1,1,2024-10-11_16h33.49.368,visual,2024.1.5,119.39894618080346,
5_con_circum,0.25,5,20,4,364,16,,,,5_con_circum_image_58.png,288.1886722205149,288.4395815875003,,,,,1,1,2024-10-11_16h33.49.368,visual,2024.1.5,119.39894618080346,
2_con_circum,0.25,2,20,5,365,13,,,,2_con_circum_image_58.png,288.5483885955095,288.79911075450656,,,,,1,1,2024-10-11_16h33.49.368,visual,2024.1.5,119.39894618080346,
1_con_totaldot,0.25,1,20,6,366,6,,,,1_con_totaldot_image_58.png,288.9061266375124,289.1565640455054,,,,,1,1,2024-10-11_16h33.49.368,visual,2024.1.5,119.39894618080346,
3_con_circum,0.25,3,20,7,367,14,,,,3_con_circum_image_58.png,289.26495667952116,289.5158672125079,,,,,1,1,2024-10-11_16h33.49.368,visual,2024.1.5,119.39894618080346,
2_con_singledot,0.25,2,20,8,368,1,,,,2_con_singledot_image_58.png,289.62416009551674,289.87337287950214,,,,,1,1,2024-10-11_16h33.49.368,visual,2024.1.5,119.39894618080346,
5_con_totaldot,0.25,5,20,9,369,10,,,,5_con_totaldot_image_58.png,289.9821867205232,290.2325024205027,,,,,1,1,2024-10-11_16h33.49.368,visual,2024.1.5,119.39894618080346,
6_con_circum,0.25,6,20,10,370,17,,,,6_con_circum_image_58.png,290.33919692951025,290.58985221250333,,,,,1,1,2024-10-11_16h33.49.368,visual,2024.1.5,119.39894618080346,
1_con_singledot,0.25,1,20,11,371,0,,,,1_con_singledot_image_58.png,290.697995929519,290.949109337508,,,,,1,1,2024-10-11_16h33.49.368,visual,2024.1.5,119.39894618080346,
4_con_singledot,0.25,4,20,12,372,3,,,,4_con_singledot_image_58.png,291.0558176375111,291.3070648375113,,,,,1,1,2024-10-11_16h33.49.368,visual,2024.1.5,119.39894618080346,
4_con_totaldot,0.25,4,20,13,373,9,,,,4_con_totaldot_image_58.png,291.41497538751577,291.66539687951155,,,,,1,1,2024-10-11_16h33.49.368,visual,2024.1.5,119.39894618080346,
4_con_circum,0.25,4,20,14,374,15,,,,4_con_circum_image_58.png,291.77293863751987,292.0226245875063,,,,,1,1,2024-10-11_16h33.49.368,visual,2024.1.5,119.39894618080346,
5_con_singledot,0.25,5,20,15,375,4,,,,5_con_singledot_image_58.png,292.1323234705109,292.38263854550024,,,,,1,1,2024-10-11_16h33.49.368,visual,2024.1.5,119.39894618080346,
6_con_totaldot,0.25,6,20,16,376,11,,,,6_con_totaldot_image_58.png,292.48938126251454,292.73983646250855,,,,,1,1,2024-10-11_16h33.49.368,visual,2024.1.5,119.39894618080346,
3_con_totaldot,0.25,3,20,17,377,8,,,,3_con_totaldot_image_58.png,292.8483280955174,293.0992301295017,3.wav,293.19868395800586,7.mp4,293.19868395800586,1,1,2024-10-11_16h33.49.368,visual,2024.1.5,119.39894618080346,
6_con_singledot,0.25,6,21,0,378,5,,,,6_con_singledot_image_70.png,295.0392621955922,295.2900343795016,,,,,1,1,2024-10-11_16h33.49.368,visual,2024.1.5,119.39894618080346,
1_con_singledot,0.25,1,21,1,379,0,,,,1_con_singledot_image_70.png,295.3984331375163,295.649628420503,,,,,1,1,2024-10-11_16h33.49.368,visual,2024.1.5,119.39894618080346,
6_con_totaldot,0.25,6,21,2,380,11,,,,6_con_totaldot_image_70.png,295.75643930452355,296.0062712955085,,,,,1,1,2024-10-11_16h33.49.368,visual,2024.1.5,119.39894618080346,
4_con_circum,0.25,4,21,3,381,15,,,,4_con_circum_image_70.png,296.11549376251645,296.3655465875025,,,,,1,1,2024-10-11_16h33.49.368,visual,2024.1.5,119.39894618080346,
1_con_circum,0.25,1,21,4,382,12,,,,1_con_circum_image_70.png,296.4722113045195,296.72292112950237,,,,,1,1,2024-10-11_16h33.49.368,visual,2024.1.5,119.39894618080346,
1_con_totaldot,0.25,1,21,5,383,6,,,,1_con_totaldot_image_70.png,296.83221188751344,297.082738795504,,,,,1,1,2024-10-11_16h33.49.368,visual,2024.1.5,119.39894618080346,
5_con_totaldot,0.25,5,21,6,384,10,,,,5_con_totaldot_image_70.png,297.18946430451473,297.4395299205033,,,,,1,1,2024-10-11_16h33.49.368,visual,2024.1.5,119.39894618080346,
5_con_singledot,0.25,5,21,7,385,4,,,,5_con_singledot_image_70.png,297.54918480451164,297.79869292050427,,,,,1,1,2024-10-11_16h33.49.368,visual,2024.1.5,119.39894618080346,
6_con_circum,0.25,6,21,8,386,17,,,,6_con_circum_image_70.png,297.905522679523,298.15668700450334,,,,,1,1,2024-10-11_16h33.49.368,visual,2024.1.5,119.39894618080346,
2_con_singledot,0.25,2,21,9,387,1,,,,2_con_singledot_image_70.png,298.2657163875178,298.51637908750564,,,,,1,1,2024-10-11_16h33.49.368,visual,2024.1.5,119.39894618080346,
2_con_circum,0.25,2,21,10,388,13,,,,2_con_circum_image_70.png,298.6231164705154,298.8729232955055,,,,,1,1,2024-10-11_16h33.49.368,visual,2024.1.5,119.39894618080346,
3_con_singledot,0.25,3,21,11,389,2,,,,3_con_singledot_image_70.png,298.98219447050946,299.2321390045079,,,,,1,1,2024-10-11_16h33.49.368,visual,2024.1.5,119.39894618080346,
4_con_singledot,0.25,4,21,12,390,3,,,,4_con_singledot_image_70.png,299.33819392951267,299.59065754551267,,,,,1,1,2024-10-11_16h33.49.368,visual,2024.1.5,119.39894618080346,
4_con_totaldot,0.25,4,21,13,391,9,,,,4_con_totaldot_image_70.png,299.69810084550994,299.94930708750036,,,,,1,1,2024-10-11_16h33.49.368,visual,2024.1.5,119.39894618080346,
3_con_totaldot,0.25,3,21,14,392,8,,,,3_con_totaldot_image_70.png,300.05605617951954,300.30621921250423,,,,,1,1,2024-10-11_16h33.49.368,visual,2024.1.5,119.39894618080346,
3_con_circum,0.25,3,21,15,393,14,,,,3_con_circum_image_70.png,300.41561067951847,300.66556062950696,,,,,1,1,2024-10-11_16h33.49.368,visual,2024.1.5,119.39894618080346,
2_con_totaldot,0.25,2,21,16,394,7,,,,2_con_totaldot_image_70.png,300.7725874705124,301.0238398375048,,,,,1,1,2024-10-11_16h33.49.368,visual,2024.1.5,119.39894618080346,
5_con_circum,0.25,5,21,17,395,16,,,,5_con_circum_image_70.png,301.1317962205125,301.382953962512,5.wav,301.4825622500066,6.mp4,301.4825622500066,1,1,2024-10-11_16h33.49.368,visual,2024.1.5,119.39894618080346,
1_con_singledot,0.25,1,22,0,396,0,,,,1_con_singledot_image_64.png,303.3203498625895,303.5732243375067,,,,,1,1,2024-10-11_16h33.49.368,visual,2024.1.5,119.39894618080346,
1_con_totaldot,0.25,1,22,1,397,6,,,,1_con_totaldot_image_64.png,303.6820580545231,303.93269058750303,,,,,1,1,2024-10-11_16h33.49.368,visual,2024.1.5,119.39894618080346,
5_con_singledot,0.25,5,22,2,398,4,,,,5_con_singledot_image_64.png,304.0396112205112,304.29024625449966,,,,,1,1,2024-10-11_16h33.49.368,visual,2024.1.5,119.39894618080346,
3_con_singledot,0.25,3,22,3,399,2,,,,3_con_singledot_image_64.png,304.3985291795165,304.64970271251224,,,,,1,1,2024-10-11_16h33.49.368,visual,2024.1.5,119.39894618080346,
3_con_totaldot,0.25,3,22,4,400,8,,,,3_con_totaldot_image_64.png,304.75634959551684,305.0068692544999,,,,,1,1,2024-10-11_16h33.49.368,visual,2024.1.5,119.39894618080346,
2_con_circum,0.25,2,22,5,401,13,,,,2_con_circum_image_64.png,305.1152653875237,305.3661745045072,,,,,1,1,2024-10-11_16h33.49.368,visual,2024.1.5,119.39894618080346,
3_con_circum,0.25,3,22,6,402,14,,,,3_con_circum_image_64.png,305.4729045955232,305.72362854551176,,,,,1,1,2024-10-11_16h33.49.368,visual,2024.1.5,119.39894618080346,
6_con_singledot,0.25,6,22,7,403,5,,,,6_con_singledot_image_64.png,305.83187126251,306.0827901705023,,,,,1,1,2024-10-11_16h33.49.368,visual,2024.1.5,119.39894618080346,
5_con_totaldot,0.25,5,22,8,404,10,,,,5_con_totaldot_image_64.png,306.1910434295191,306.4499193375057,,,,,1,1,2024-10-11_16h33.49.368,visual,2024.1.5,119.39894618080346,
6_con_circum,0.25,6,22,9,405,17,,,,6_con_circum_image_64.png,306.5582229295164,306.81573604550505,,,,,1,1,2024-10-11_16h33.49.368,visual,2024.1.5,119.39894618080346,
4_con_circum,0.25,4,22,10,406,15,,,,4_con_circum_image_64.png,306.92269184551554,307.17313512949914,,,,,1,1,2024-10-11_16h33.49.368,visual,2024.1.5,119.39894618080346,
6_con_totaldot,0.25,6,22,11,407,11,,,,6_con_totaldot_image_64.png,307.28197159551786,307.53238308751025,,,,,1,1,2024-10-11_16h33.49.368,visual,2024.1.5,119.39894618080346,
2_con_totaldot,0.25,2,22,12,408,7,,,,2_con_totaldot_image_64.png,307.6406804705097,307.8906971705117,,,,,1,1,2024-10-11_16h33.49.368,visual,2024.1.5,119.39894618080346,
4_con_singledot,0.25,4,22,13,409,3,,,,4_con_singledot_image_64.png,307.9989350955206,308.2496076705109,,,,,1,1,2024-10-11_16h33.49.368,visual,2024.1.5,119.39894618080346,
4_con_totaldot,0.25,4,22,14,410,9,,,,4_con_totaldot_image_64.png,308.3563840545161,308.6067460875027,,,,,1,1,2024-10-11_16h33.49.368,visual,2024.1.5,119.39894618080346,
5_con_circum,0.25,5,22,15,411,16,,,,5_con_circum_image_64.png,308.71536238751145,308.9666332544992,,,,,1,1,2024-10-11_16h33.49.368,visual,2024.1.5,119.39894618080346,
1_con_circum,0.25,1,22,16,412,12,,,,1_con_circum_image_64.png,309.07505513751533,309.3333422545082,,,,,1,1,2024-10-11_16h33.49.368,visual,2024.1.5,119.39894618080346,
2_con_singledot,0.25,2,22,17,413,1,,,,2_con_singledot_image_64.png,309.4399830955139,309.6899644205085,4.wav,309.7914616670023,15.mp4,309.7914616670023,1,1,2024-10-11_16h33.49.368,visual,2024.1.5,119.39894618080346,
5_con_totaldot,0.25,5,23,0,414,10,,,,5_con_totaldot_image_65.png,311.6309057795967,311.88233812950494,,,,,1,1,2024-10-11_16h33.49.368,visual,2024.1.5,119.39894618080346,
5_con_circum,0.25,5,23,1,415,16,,,,5_con_circum_image_65.png,311.9891666795215,312.2406007955113,,,,,1,1,2024-10-11_16h33.49.368,visual,2024.1.5,119.39894618080346,
3_con_circum,0.25,3,23,2,416,14,,,,3_con_circum_image_65.png,312.348706762516,312.6002787125006,,,,,1,1,2024-10-11_16h33.49.368,visual,2024.1.5,119.39894618080346,
2_con_circum,0.25,2,23,3,417,13,,,,2_con_circum_image_65.png,312.7087070955226,312.96568812950574,,,,,1,1,2024-10-11_16h33.49.368,visual,2024.1.5,119.39894618080346,
6_con_circum,0.25,6,23,4,418,17,,,,6_con_circum_image_65.png,313.07235242952305,313.3237878795015,,,,,1,1,2024-10-11_16h33.49.368,visual,2024.1.5,119.39894618080346,
6_con_singledot,0.25,6,23,5,419,5,,,,6_con_singledot_image_65.png,313.43254809552167,313.6830117125035,,,,,1,1,2024-10-11_16h33.49.368,visual,2024.1.5,119.39894618080346,
5_con_singledot,0.25,5,23,6,420,4,,,,5_con_singledot_image_65.png,313.7897319295211,314.03981683750754,,,,,1,1,2024-10-11_16h33.49.368,visual,2024.1.5,119.39894618080346,
4_con_circum,0.25,4,23,7,421,15,,,,4_con_circum_image_65.png,314.14869067950934,314.3990957125032,,,,,1,1,2024-10-11_16h33.49.368,visual,2024.1.5,119.39894618080346,
3_con_totaldot,0.25,3,23,8,422,8,,,,3_con_totaldot_image_65.png,314.50598022051275,314.7567427125003,,,,,1,1,2024-10-11_16h33.49.368,visual,2024.1.5,119.39894618080346,
1_con_singledot,0.25,1,23,9,423,0,,,,1_con_singledot_image_65.png,314.8650402625121,315.11626092050284,,,,,1,1,2024-10-11_16h33.49.368,visual,2024.1.5,119.39894618080346,
4_con_singledot,0.25,4,23,10,424,3,,,,4_con_singledot_image_65.png,315.2228623455216,315.4738915455062,,,,,1,1,2024-10-11_16h33.49.368,visual,2024.1.5,119.39894618080346,
6_con_totaldot,0.25,6,23,11,425,11,,,,6_con_totaldot_image_65.png,315.5828164705221,315.8332816295122,,,,,1,1,2024-10-11_16h33.49.368,visual,2024.1.5,119.39894618080346,
4_con_totaldot,0.25,4,23,12,426,9,,,,4_con_totaldot_image_65.png,315.940065804511,316.1907951295114,,,,,1,1,2024-10-11_16h33.49.368,visual,2024.1.5,119.39894618080346,
1_con_totaldot,0.25,1,23,13,427,6,,,,1_con_totaldot_image_65.png,316.29880297052154,316.54955654550287,,,,,1,1,2024-10-11_16h33.49.368,visual,2024.1.5,119.39894618080346,
2_con_singledot,0.25,2,23,14,428,1,,,,2_con_singledot_image_65.png,316.65628242951647,316.90648612950173,,,,,1,1,2024-10-11_16h33.49.368,visual,2024.1.5,119.39894618080346,
1_con_circum,0.25,1,23,15,429,12,,,,1_con_circum_image_65.png,317.0160436795181,317.2661813374987,,,,,1,1,2024-10-11_16h33.49.368,visual,2024.1.5,119.39894618080346,
3_con_singledot,0.25,3,23,16,430,2,,,,3_con_singledot_image_65.png,317.3730764295237,317.62305012950384,,,,,1,1,2024-10-11_16h33.49.368,visual,2024.1.5,119.39894618080346,
2_con_totaldot,0.25,2,23,17,431,7,,,,2_con_totaldot_image_65.png,317.73259188751985,317.9825325454993,2.wav,318.08188945800066,7.mp4,318.08188945800066,1,1,2024-10-11_16h33.49.368,visual,2024.1.5,119.39894618080346,
6_con_circum,0.25,6,24,0,432,17,,,,6_con_circum_image_59.png,319.9248264455906,320.1829721295042,,,,,1,1,2024-10-11_16h33.49.368,visual,2024.1.5,119.39894618080346,
1_con_totaldot,0.25,1,24,1,433,6,,,,1_con_totaldot_image_59.png,320.28963688751395,320.5393950455007,,,,,1,1,2024-10-11_16h33.49.368,visual,2024.1.5,119.39894618080346,
1_con_singledot,0.25,1,24,2,434,0,,,,1_con_singledot_image_59.png,320.64913855451454,320.89908654550965,,,,,1,1,2024-10-11_16h33.49.368,visual,2024.1.5,119.39894618080346,
2_con_singledot,0.25,2,24,3,435,1,,,,2_con_singledot_image_59.png,321.0059987625195,321.25655321251253,,,,,1,1,2024-10-11_16h33.49.368,visual,2024.1.5,119.39894618080346,
2_con_circum,0.25,2,24,4,436,13,,,,2_con_circum_image_59.png,321.3658420955093,321.61589317051113,,,,,1,1,2024-10-11_16h33.49.368,visual,2024.1.5,119.39894618080346,
4_con_circum,0.25,4,24,5,437,15,,,,4_con_circum_image_59.png,321.7220600545174,321.9735842955095,,,,,1,1,2024-10-11_16h33.49.368,visual,2024.1.5,119.39894618080346,
4_con_totaldot,0.25,4,24,6,438,9,,,,4_con_totaldot_image_59.png,322.0821390545229,322.3329417955072,,,,,1,1,2024-10-11_16h33.49.368,visual,2024.1.5,119.39894618080346,
3_con_circum,0.25,3,24,7,439,14,,,,3_con_circum_image_59.png,322.4390028045222,322.6903690875013,,,,,1,1,2024-10-11_16h33.49.368,visual,2024.1.5,119.39894618080346,
3_con_totaldot,0.25,3,24,8,440,8,,,,3_con_totaldot_image_59.png,322.79929901251165,323.0500815454987,,,,,1,1,2024-10-11_16h33.49.368,visual,2024.1.5,119.39894618080346,
1_con_circum,0.25,1,24,9,441,12,,,,1_con_circum_image_59.png,323.15677705451384,323.40724292050874,,,,,1,1,2024-10-11_16h33.49.368,visual,2024.1.5,119.39894618080346,
5_con_singledot,0.25,5,24,10,442,4,,,,5_con_singledot_image_59.png,323.5158426795155,323.766536170512,,,,,1,1,2024-10-11_16h33.49.368,visual,2024.1.5,119.39894618080346,
6_con_totaldot,0.25,6,24,11,443,11,,,,6_con_totaldot_image_59.png,323.8735360545165,324.12338929550316,,,,,1,1,2024-10-11_16h33.49.368,visual,2024.1.5,119.39894618080346,
5_con_circum,0.25,5,24,12,444,16,,,,5_con_circum_image_59.png,324.23250067952034,324.48263625451074,,,,,1,1,2024-10-11_16h33.49.368,visual,2024.1.5,119.39894618080346,
3_con_singledot,0.25,3,24,13,445,2,,,,3_con_singledot_image_59.png,324.5895655955159,324.840562962502,,,,,1,1,2024-10-11_16h33.49.368,visual,2024.1.5,119.39894618080346,
6_con_singledot,0.25,6,24,14,446,5,,,,6_con_singledot_image_59.png,324.9491789295193,325.19929771250173,,,,,1,1,2024-10-11_16h33.49.368,visual,2024.1.5,119.39894618080346,
2_con_totaldot,0.25,2,24,15,447,7,,,,2_con_totaldot_image_59.png,325.3059851375205,325.55735058750435,,,,,1,1,2024-10-11_16h33.49.368,visual,2024.1.5,119.39894618080346,
4_con_singledot,0.25,4,24,16,448,3,,,,4_con_singledot_image_59.png,325.66562926251794,325.91645087950457,,,,,1,1,2024-10-11_16h33.49.368,visual,2024.1.5,119.39894618080346,
5_con_totaldot,0.25,5,24,17,449,10,,,,5_con_totaldot_image_59.png,326.02313876251577,326.2740680875111,1.wav,326.37468991700734,7.mp4,326.37468991700734,1,1,2024-10-11_16h33.49.368,visual,2024.1.5,119.39894618080346,
2_con_totaldot,0.25,2,25,0,450,7,,,,2_con_totaldot_image_67.png,328.1975649875909,328.44980387951074,,,,,1,1,2024-10-11_16h33.49.368,visual,2024.1.5,119.39894618080346,
1_con_totaldot,0.25,1,25,1,451,6,,,,1_con_totaldot_image_67.png,328.5566976795148,328.8072745875077,,,,,1,1,2024-10-11_16h33.49.368,visual,2024.1.5,119.39894618080346,
5_con_circum,0.25,5,25,2,452,16,,,,5_con_circum_image_67.png,328.9155977625109,329.1664774205099,,,,,1,1,2024-10-11_16h33.49.368,visual,2024.1.5,119.39894618080346,
2_con_singledot,0.25,2,25,3,453,1,,,,2_con_singledot_image_67.png,329.27317951252047,329.5238512545009,,,,,1,1,2024-10-11_16h33.49.368,visual,2024.1.5,119.39894618080346,
6_con_singledot,0.25,6,25,4,454,5,,,,6_con_singledot_image_67.png,329.632325054516,329.8831580045051,,,,,1,1,2024-10-11_16h33.49.368,visual,2024.1.5,119.39894618080346,
6_con_totaldot,0.25,6,25,5,455,11,,,,6_con_totaldot_image_67.png,329.98995155451706,330.2403347125044,,,,,1,1,2024-10-11_16h33.49.368,visual,2024.1.5,119.39894618080346,
4_con_totaldot,0.25,4,25,6,456,9,,,,4_con_totaldot_image_67.png,330.34870605452164,330.59942454550475,,,,,1,1,2024-10-11_16h33.49.368,visual,2024.1.5,119.39894618080346,
6_con_circum,0.25,6,25,7,457,17,,,,6_con_circum_image_67.png,330.7064779295237,330.9572466705111,,,,,1,1,2024-10-11_16h33.49.368,visual,2024.1.5,119.39894618080346,
2_con_circum,0.25,2,25,8,458,13,,,,2_con_circum_image_67.png,331.06558388751586,331.316817504511,,,,,1,1,2024-10-11_16h33.49.368,visual,2024.1.5,119.39894618080346,
3_con_singledot,0.25,3,25,9,459,2,,,,3_con_singledot_image_67.png,331.4235728875123,331.6743507545005,,,,,1,1,2024-10-11_16h33.49.368,visual,2024.1.5,119.39894618080346,
4_con_singledot,0.25,4,25,10,460,3,,,,4_con_singledot_image_67.png,331.783317804517,332.0327252545074,,,,,1,1,2024-10-11_16h33.49.368,visual,2024.1.5,119.39894618080346,
1_con_circum,0.25,1,25,11,461,12,,,,1_con_circum_image_67.png,332.1394940955128,332.39078187950946,,,,,1,1,2024-10-11_16h33.49.368,visual,2024.1.5,119.39894618080346,
5_con_singledot,0.25,5,25,12,462,4,,,,5_con_singledot_image_67.png,332.49944172052204,332.74980717050204,,,,,1,1,2024-10-11_16h33.49.368,visual,2024.1.5,119.39894618080346,
3_con_totaldot,0.25,3,25,13,463,8,,,,3_con_totaldot_image_67.png,332.8564055955125,333.1072818375076,,,,,1,1,2024-10-11_16h33.49.368,visual,2024.1.5,119.39894618080346,
1_con_singledot,0.25,1,25,14,464,0,,,,1_con_singledot_image_67.png,333.2163317625149,333.4669068795018,,,,,1,1,2024-10-11_16h33.49.368,visual,2024.1.5,119.39894618080346,
5_con_totaldot,0.25,5,25,15,465,10,,,,5_con_totaldot_image_67.png,333.57358184552,333.8234962955001,,,,,1,1,2024-10-11_16h33.49.368,visual,2024.1.5,119.39894618080346,
3_con_circum,0.25,3,25,16,466,14,,,,3_con_circum_image_67.png,333.9331247205177,334.1827510875126,,,,,1,1,2024-10-11_16h33.49.368,visual,2024.1.5,119.39894618080346,
4_con_circum,0.25,4,25,17,467,15,,,,4_con_circum_image_67.png,334.2897485125199,334.54062087950007,1.wav,334.64131116701174,1.mp4,334.64131116701174,1,1,2024-10-11_16h33.49.368,visual,2024.1.5,119.39894618080346,
2_con_singledot,0.25,2,26,0,468,1,,,,2_con_singledot_image_66.png,336.487104945592,336.74094621250407,,,,,1,1,2024-10-11_16h33.49.368,visual,2024.1.5,119.39894618080346,
2_con_totaldot,0.25,2,26,1,469,7,,,,2_con_totaldot_image_66.png,336.84914409551715,337.0999105455092,,,,,1,1,2024-10-11_16h33.49.368,visual,2024.1.5,119.39894618080346,
4_con_circum,0.25,4,26,2,470,15,,,,4_con_circum_image_66.png,337.2066061375139,337.4575507545058,,,,,1,1,2024-10-11_16h33.49.368,visual,2024.1.5,119.39894618080346,
3_con_singledot,0.25,3,26,3,471,2,,,,3_con_singledot_image_66.png,337.5657172625128,337.81654512950337,,,,,1,1,2024-10-11_16h33.49.368,visual,2024.1.5,119.39894618080346,
1_con_totaldot,0.25,1,26,4,472,6,,,,1_con_totaldot_image_66.png,337.9233008875221,338.1728653375001,,,,,1,1,2024-10-11_16h33.49.368,visual,2024.1.5,119.39894618080346,
5_con_totaldot,0.25,5,26,5,473,10,,,,5_con_totaldot_image_66.png,338.28275647051345,338.5333818375046,,,,,1,1,2024-10-11_16h33.49.368,visual,2024.1.5,119.39894618080346,
4_con_totaldot,0.25,4,26,6,474,9,,,,4_con_totaldot_image_66.png,338.63935526251447,338.8909672955022,,,,,1,1,2024-10-11_16h33.49.368,visual,2024.1.5,119.39894618080346,
3_con_circum,0.25,3,26,7,475,14,,,,3_con_circum_image_66.png,338.99952767951476,339.2501467125083,,,,,1,1,2024-10-11_16h33.49.368,visual,2024.1.5,119.39894618080346,
3_con_totaldot,0.25,3,26,8,476,8,,,,3_con_totaldot_image_66.png,339.35681330451047,339.60723292050244,,,,,1,1,2024-10-11_16h33.49.368,visual,2024.1.5,119.39894618080346,
6_con_singledot,0.25,6,26,9,477,5,,,,6_con_singledot_image_66.png,339.71609847051735,339.96680929550786,,,,,1,1,2024-10-11_16h33.49.368,visual,2024.1.5,119.39894618080346,
6_con_circum,0.25,6,26,10,478,17,,,,6_con_circum_image_66.png,340.073587512516,340.3236942125048,,,,,1,1,2024-10-11_16h33.49.368,visual,2024.1.5,119.39894618080346,
1_con_singledot,0.25,1,26,11,479,0,,,,1_con_singledot_image_66.png,340.43324334551875,340.6828242544987,,,,,1,1,2024-10-11_16h33.49.368,visual,2024.1.5,119.39894618080346,
2_con_circum,0.25,2,26,12,480,13,,,,2_con_circum_image_66.png,340.7895947205165,341.0402785045124,,,,,1,1,2024-10-11_16h33.49.368,visual,2024.1.5,119.39894618080346,
6_con_totaldot,0.25,6,26,13,481,11,,,,6_con_totaldot_image_66.png,341.1497232625174,341.4001645875076,,,,,1,1,2024-10-11_16h33.49.368,visual,2024.1.5,119.39894618080346,
1_con_circum,0.25,1,26,14,482,12,,,,1_con_circum_image_66.png,341.50700713751434,341.75742137949857,,,,,1,1,2024-10-11_16h33.49.368,visual,2024.1.5,119.39894618080346,
5_con_singledot,0.25,5,26,15,483,4,,,,5_con_singledot_image_66.png,341.8662963455194,342.11701087950206,,,,,1,1,2024-10-11_16h33.49.368,visual,2024.1.5,119.39894618080346,
4_con_singledot,0.25,4,26,16,484,3,,,,4_con_singledot_image_66.png,342.22368830451745,342.4741959205101,,,,,1,1,2024-10-11_16h33.49.368,visual,2024.1.5,119.39894618080346,
5_con_circum,0.25,5,26,17,485,16,,,,5_con_circum_image_66.png,342.58219309551936,342.8335276295082,4.wav,342.93298908299766,5.mp4,342.93298908299766,1,1,2024-10-11_16h33.49.368,visual,2024.1.5,119.39894618080346,
3_con_totaldot,0.25,3,27,0,486,8,,,,3_con_totaldot_image_43.png,344.7825815705961,345.0335555875034,,,,,1,1,2024-10-11_16h33.49.368,visual,2024.1.5,119.39894618080346,
1_con_totaldot,0.25,1,27,1,487,6,,,,1_con_totaldot_image_43.png,345.1404876375222,345.39086167051283,,,,,1,1,2024-10-11_16h33.49.368,visual,2024.1.5,119.39894618080346,
2_con_circum,0.25,2,27,2,488,13,,,,2_con_circum_image_43.png,345.4992805125134,345.7496254625119,,,,,1,1,2024-10-11_16h33.49.368,visual,2024.1.5,119.39894618080346,
1_con_singledot,0.25,1,27,3,489,0,,,,1_con_singledot_image_43.png,345.85636038751403,346.10689729550796,,,,,1,1,2024-10-11_16h33.49.368,visual,2024.1.5,119.39894618080346,
5_con_circum,0.25,5,27,4,490,16,,,,5_con_circum_image_43.png,346.2166855545133,346.4671013794985,,,,,1,1,2024-10-11_16h33.49.368,visual,2024.1.5,119.39894618080346,
4_con_singledot,0.25,4,27,5,491,3,,,,4_con_singledot_image_43.png,346.5740181795176,346.8242036705022,,,,,1,1,2024-10-11_16h33.49.368,visual,2024.1.5,119.39894618080346,
2_con_totaldot,0.25,2,27,6,492,7,,,,2_con_totaldot_image_43.png,346.93333751251924,347.18289742050985,,,,,1,1,2024-10-11_16h33.49.368,visual,2024.1.5,119.39894618080346,
6_con_circum,0.25,6,27,7,493,17,,,,6_con_circum_image_43.png,347.28976159552116,347.5406026295066,,,,,1,1,2024-10-11_16h33.49.368,visual,2024.1.5,119.39894618080346,
6_con_totaldot,0.25,6,27,8,494,11,,,,6_con_totaldot_image_43.png,347.6496355125186,347.90010867050734,,,,,1,1,2024-10-11_16h33.49.368,visual,2024.1.5,119.39894618080346,
1_con_circum,0.25,1,27,9,495,12,,,,1_con_circum_image_43.png,348.00676709552357,348.2591289625096,,,,,1,1,2024-10-11_16h33.49.368,visual,2024.1.5,119.39894618080346,
4_con_totaldot,0.25,4,27,10,496,9,,,,4_con_totaldot_image_43.png,348.36664038751627,348.6167807955033,,,,,1,1,2024-10-11_16h33.49.368,visual,2024.1.5,119.39894618080346,
2_con_singledot,0.25,2,27,11,497,1,,,,2_con_singledot_image_43.png,348.7235489295185,348.97460387950997,,,,,1,1,2024-10-11_16h33.49.368,visual,2024.1.5,119.39894618080346,
3_con_circum,0.25,3,27,12,498,14,,,,3_con_circum_image_43.png,349.0827324705228,349.33299642050116,,,,,1,1,2024-10-11_16h33.49.368,visual,2024.1.5,119.39894618080346,
5_con_totaldot,0.25,5,27,13,499,10,,,,5_con_totaldot_image_43.png,349.43988997051787,349.6907840875036,,,,,1,1,2024-10-11_16h33.49.368,visual,2024.1.5,119.39894618080346,
4_con_circum,0.25,4,27,14,500,15,,,,4_con_circum_image_43.png,349.79978534552214,350.0500649624999,,,,,1,1,2024-10-11_16h33.49.368,visual,2024.1.5,119.39894618080346,
6_con_singledot,0.25,6,27,15,501,5,,,,6_con_singledot_image_43.png,350.15676026252044,350.4074472545006,,,,,1,1,2024-10-11_16h33.49.368,visual,2024.1.5,119.39894618080346,
3_con_singledot,0.25,3,27,16,502,2,,,,3_con_singledot_image_43.png,350.5162372625113,350.7669722545077,,,,,1,1,2024-10-11_16h33.49.368,visual,2024.1.5,119.39894618080346,
5_con_singledot,0.25,5,27,17,503,4,,,,5_con_singledot_image_43.png,350.8737448875094,351.12376617050614,3.wav,351.2261070000095,4.mp4,351.2261070000095,1,1,2024-10-11_16h33.49.368,visual,2024.1.5,119.39894618080346,
1_con_circum,0.25,1,28,0,504,12,,,,1_con_circum_image_57.png,353.0505229045899,353.3002027955052,,,,,1,1,2024-10-11_16h33.49.368,visual,2024.1.5,119.39894618080346,
5_con_circum,0.25,5,28,1,505,16,,,,5_con_circum_image_57.png,353.4071588455176,353.65708896251164,,,,,1,1,2024-10-11_16h33.49.368,visual,2024.1.5,119.39894618080346,
2_con_singledot,0.25,2,28,2,506,1,,,,2_con_singledot_image_57.png,353.7660985955212,354.01631842051285,,,,,1,1,2024-10-11_16h33.49.368,visual,2024.1.5,119.39894618080346,
3_con_circum,0.25,3,28,3,507,14,,,,3_con_circum_image_57.png,354.1229843045207,354.37432796250215,,,,,1,1,2024-10-11_16h33.49.368,visual,2024.1.5,119.39894618080346,
6_con_circum,0.25,6,28,4,508,17,,,,6_con_circum_image_57.png,354.4830623455113,354.7338622955111,,,,,1,1,2024-10-11_16h33.49.368,visual,2024.1.5,119.39894618080346,
5_con_singledot,0.25,5,28,5,509,4,,,,5_con_singledot_image_57.png,354.84069363751627,355.0905017545127,,,,,1,1,2024-10-11_16h33.49.368,visual,2024.1.5,119.39894618080346,
4_con_singledot,0.25,4,28,6,510,3,,,,4_con_singledot_image_57.png,355.1998118875112,355.4503842125094,,,,,1,1,2024-10-11_16h33.49.368,visual,2024.1.5,119.39894618080346,
1_con_singledot,0.25,1,28,7,511,0,,,,1_con_singledot_image_57.png,355.5570233455132,355.8077060455078,,,,,1,1,2024-10-11_16h33.49.368,visual,2024.1.5,119.39894618080346,
6_con_singledot,0.25,6,28,8,512,5,,,,6_con_singledot_image_57.png,355.9160707205214,356.1669560455019,,,,,1,1,2024-10-11_16h33.49.368,visual,2024.1.5,119.39894618080346,
3_con_totaldot,0.25,3,28,9,513,8,,,,3_con_totaldot_image_57.png,356.27526309551325,356.5339918795042,,,,,1,1,2024-10-11_16h33.49.368,visual,2024.1.5,119.39894618080346,
1_con_totaldot,0.25,1,28,10,514,6,,,,1_con_totaldot_image_57.png,356.6424018045131,356.9011198375054,,,,,1,1,2024-10-11_16h33.49.368,visual,2024.1.5,119.39894618080346,
4_con_totaldot,0.25,4,28,11,515,9,,,,4_con_totaldot_image_57.png,357.0096470955236,357.26763308750816,,,,,1,1,2024-10-11_16h33.49.368,visual,2024.1.5,119.39894618080346,
2_con_circum,0.25,2,28,12,516,13,,,,2_con_circum_image_57.png,357.37616038752316,357.63373629550625,,,,,1,1,2024-10-11_16h33.49.368,visual,2024.1.5,119.39894618080346,
2_con_totaldot,0.25,2,28,13,517,7,,,,2_con_totaldot_image_57.png,357.74042551252063,357.99119046250127,,,,,1,1,2024-10-11_16h33.49.368,visual,2024.1.5,119.39894618080346,
6_con_totaldot,0.25,6,28,14,518,11,,,,6_con_totaldot_image_57.png,358.0998686375155,358.3501800455095,,,,,1,1,2024-10-11_16h33.49.368,visual,2024.1.5,119.39894618080346,
4_con_circum,0.25,4,28,15,519,15,,,,4_con_circum_image_57.png,358.4567958875181,358.7074160875025,,,,,1,1,2024-10-11_16h33.49.368,visual,2024.1.5,119.39894618080346,
3_con_singledot,0.25,3,28,16,520,2,,,,3_con_singledot_image_57.png,358.81637834551515,359.0674320875085,,,,,1,1,2024-10-11_16h33.49.368,visual,2024.1.5,119.39894618080346,
5_con_totaldot,0.25,5,28,17,521,10,,,,5_con_totaldot_image_57.png,359.17447805451815,359.42388508750884,5.wav,359.5262912920007,2.mp4,359.5262912920007,1,1,2024-10-11_16h33.49.368,visual,2024.1.5,119.39894618080346,
5_con_totaldot,0.25,5,29,0,522,10,,,,5_con_totaldot_image_2.png,361.34518994559187,361.600439754501,,,,,1,1,2024-10-11_16h33.49.368,visual,2024.1.5,119.39894618080346,
3_con_totaldot,0.25,3,29,1,523,8,,,,3_con_totaldot_image_2.png,361.7071570955217,361.95783858750366,,,,,1,1,2024-10-11_16h33.49.368,visual,2024.1.5,119.39894618080346,
6_con_singledot,0.25,6,29,2,524,5,,,,6_con_singledot_image_2.png,362.0665669705108,362.3173879205104,,,,,1,1,2024-10-11_16h33.49.368,visual,2024.1.5,119.39894618080346,
3_con_singledot,0.25,3,29,3,525,2,,,,3_con_singledot_image_2.png,362.4242937205185,362.6745002955111,,,,,1,1,2024-10-11_16h33.49.368,visual,2024.1.5,119.39894618080346,
4_con_circum,0.25,4,29,4,526,15,,,,4_con_circum_image_2.png,362.7824348045164,363.0338775875105,,,,,1,1,2024-10-11_16h33.49.368,visual,2024.1.5,119.39894618080346,
6_con_circum,0.25,6,29,5,527,17,,,,6_con_circum_image_2.png,363.1408901795134,363.3906780045043,,,,,1,1,2024-10-11_16h33.49.368,visual,2024.1.5,119.39894618080346,
3_con_circum,0.25,3,29,6,528,14,,,,3_con_circum_image_2.png,363.49978017951656,363.750367962505,,,,,1,1,2024-10-11_16h33.49.368,visual,2024.1.5,119.39894618080346,
2_con_totaldot,0.25,2,29,7,529,7,,,,2_con_totaldot_image_2.png,363.8570185545163,364.10832654550615,,,,,1,1,2024-10-11_16h33.49.368,visual,2024.1.5,119.39894618080346,
4_con_totaldot,0.25,4,29,8,530,9,,,,4_con_totaldot_image_2.png,364.21657201251077,364.4666480874992,,,,,1,1,2024-10-11_16h33.49.368,visual,2024.1.5,119.39894618080346,
6_con_totaldot,0.25,6,29,9,531,11,,,,6_con_totaldot_image_2.png,364.57354559552044,364.82397700450093,,,,,1,1,2024-10-11_16h33.49.368,visual,2024.1.5,119.39894618080346,
1_con_circum,0.25,1,29,10,532,12,,,,1_con_circum_image_2.png,364.9335808875098,365.1833370455104,,,,,1,1,2024-10-11_16h33.49.368,visual,2024.1.5,119.39894618080346,
1_con_totaldot,0.25,1,29,11,533,6,,,,1_con_totaldot_image_2.png,365.2900561795163,365.54123812949985,,,,,1,1,2024-10-11_16h33.49.368,visual,2024.1.5,119.39894618080346,
4_con_singledot,0.25,4,29,12,534,3,,,,4_con_singledot_image_2.png,365.65017330452105,365.9006433375005,,,,,1,1,2024-10-11_16h33.49.368,visual,2024.1.5,119.39894618080346,
2_con_circum,0.25,2,29,13,535,13,,,,2_con_circum_image_2.png,366.00747009552146,366.2568377125106,,,,,1,1,2024-10-11_16h33.49.368,visual,2024.1.5,119.39894618080346,
1_con_singledot,0.25,1,29,14,536,0,,,,1_con_singledot_image_2.png,366.3674728455139,366.6171642545058,,,,,1,1,2024-10-11_16h33.49.368,visual,2024.1.5,119.39894618080346,
5_con_circum,0.25,5,29,15,537,16,,,,5_con_circum_image_2.png,366.7239213455236,366.97396079550964,,,,,1,1,2024-10-11_16h33.49.368,visual,2024.1.5,119.39894618080346,
2_con_singledot,0.25,2,29,16,538,1,,,,2_con_singledot_image_2.png,367.0838994295104,367.3333210454992,,,,,1,1,2024-10-11_16h33.49.368,visual,2024.1.5,119.39894618080346,
5_con_singledot,0.25,5,29,17,539,4,,,,5_con_singledot_image_2.png,367.4400388455164,367.69145642050427,5.wav,367.79332258300565,14.mp4,367.79332258300565,1,1,2024-10-11_16h33.49.368,visual,2024.1.5,119.39894618080346,
1_con_circum,0.25,1,30,0,540,12,,,,1_con_circum_image_56.png,369.6373104455939,369.89026208749857,,,,,1,1,2024-10-11_16h33.49.368,visual,2024.1.5,119.39894618080346,
1_con_singledot,0.25,1,30,1,541,0,,,,1_con_singledot_image_56.png,370.00025551251605,370.25061883750897,,,,,1,1,2024-10-11_16h33.49.368,visual,2024.1.5,119.39894618080346,
3_con_totaldot,0.25,3,30,2,542,8,,,,3_con_totaldot_image_56.png,370.3573183875182,370.60789742051276,,,,,1,1,2024-10-11_16h33.49.368,visual,2024.1.5,119.39894618080346,
6_con_circum,0.25,6,30,3,543,17,,,,6_con_circum_image_56.png,370.71591505451073,370.967181504512,,,,,1,1,2024-10-11_16h33.49.368,visual,2024.1.5,119.39894618080346,
4_con_singledot,0.25,4,30,4,544,3,,,,4_con_singledot_image_56.png,371.0754210125219,371.3245919205045,,,,,1,1,2024-10-11_16h33.49.368,visual,2024.1.5,119.39894618080346,
6_con_singledot,0.25,6,30,5,545,5,,,,6_con_singledot_image_56.png,371.4329303045146,371.68374867050153,,,,,1,1,2024-10-11_16h33.49.368,visual,2024.1.5,119.39894618080346,
3_con_circum,0.25,3,30,6,546,14,,,,3_con_circum_image_56.png,371.7904135125195,372.04137600450196,,,,,1,1,2024-10-11_16h33.49.368,visual,2024.1.5,119.39894618080346,
2_con_circum,0.25,2,30,7,547,13,,,,2_con_circum_image_56.png,372.14973730451896,372.40086221250823,,,,,1,1,2024-10-11_16h33.49.368,visual,2024.1.5,119.39894618080346,
5_con_circum,0.25,5,30,8,548,16,,,,5_con_circum_image_56.png,372.5069853045192,372.7580517955037,,,,,1,1,2024-10-11_16h33.49.368,visual,2024.1.5,119.39894618080346,
6_con_totaldot,0.25,6,30,9,549,11,,,,6_con_totaldot_image_56.png,372.86669647051025,373.1170817125065,,,,,1,1,2024-10-11_16h33.49.368,visual,2024.1.5,119.39894618080346,
4_con_totaldot,0.25,4,30,10,550,9,,,,4_con_totaldot_image_56.png,373.22368847051115,373.47397850450653,,,,,1,1,2024-10-11_16h33.49.368,visual,2024.1.5,119.39894618080346,
1_con_totaldot,0.25,1,30,11,551,6,,,,1_con_totaldot_image_56.png,373.58368467951954,373.83385117050494,,,,,1,1,2024-10-11_16h33.49.368,visual,2024.1.5,119.39894618080346,
5_con_totaldot,0.25,5,30,12,552,10,,,,5_con_totaldot_image_56.png,373.9405082205107,374.1913575875049,,,,,1,1,2024-10-11_16h33.49.368,visual,2024.1.5,119.39894618080346,
5_con_singledot,0.25,5,30,13,553,4,,,,5_con_singledot_image_56.png,374.29933338751147,374.5504871705023,,,,,1,1,2024-10-11_16h33.49.368,visual,2024.1.5,119.39894618080346,
3_con_singledot,0.25,3,30,14,554,2,,,,3_con_singledot_image_56.png,374.657147429511,374.90803971250426,,,,,1,1,2024-10-11_16h33.49.368,visual,2024.1.5,119.39894618080346,
2_con_totaldot,0.25,2,30,15,555,7,,,,2_con_totaldot_image_56.png,375.0168784295151,375.26759142049997,,,,,1,1,2024-10-11_16h33.49.368,visual,2024.1.5,119.39894618080346,
4_con_circum,0.25,4,30,16,556,15,,,,4_con_circum_image_56.png,375.3744178875117,375.624378879508,,,,,1,1,2024-10-11_16h33.49.368,visual,2024.1.5,119.39894618080346,
2_con_singledot,0.25,2,30,17,557,1,,,,2_con_singledot_image_56.png,375.73337313751694,375.9838210045098,3.wav,376.08334212499904,3.mp4,376.08334212499904,1,1,2024-10-11_16h33.49.368,visual,2024.1.5,119.39894618080346,
2_con_totaldot,0.25,2,31,0,558,7,,,,2_con_totaldot_image_3.png,377.92772965458573,378.1835719625058,,,,,1,1,2024-10-11_16h33.49.368,visual,2024.1.5,119.39894618080346,
2_con_singledot,0.25,2,31,1,559,1,,,,2_con_singledot_image_3.png,378.2906758875237,378.54143037950854,,,,,1,1,2024-10-11_16h33.49.368,visual,2024.1.5,119.39894618080346,
5_con_singledot,0.25,5,31,2,560,4,,,,5_con_singledot_image_3.png,378.6497901795141,378.9009930045111,,,,,1,1,2024-10-11_16h33.49.368,visual,2024.1.5,119.39894618080346,
6_con_totaldot,0.25,6,31,3,561,11,,,,6_con_totaldot_image_3.png,379.00771697050953,379.25777617050045,,,,,1,1,2024-10-11_16h33.49.368,visual,2024.1.5,119.39894618080346,
6_con_circum,0.25,6,31,4,562,17,,,,6_con_circum_image_3.png,379.366376554512,379.6172407545062,,,,,1,1,2024-10-11_16h33.49.368,visual,2024.1.5,119.39894618080346,
4_con_circum,0.25,4,31,5,563,15,,,,4_con_circum_image_3.png,379.72395947052286,379.97418737951085,,,,,1,1,2024-10-11_16h33.49.368,visual,2024.1.5,119.39894618080346,
3_con_totaldot,0.25,3,31,6,564,8,,,,3_con_totaldot_image_3.png,380.08335201252197,380.33429908750696,,,,,1,1,2024-10-11_16h33.49.368,visual,2024.1.5,119.39894618080346,
2_con_circum,0.25,2,31,7,565,13,,,,2_con_circum_image_3.png,380.44110276252326,380.69131625450683,,,,,1,1,2024-10-11_16h33.49.368,visual,2024.1.5,119.39894618080346,
6_con_singledot,0.25,6,31,8,566,5,,,,6_con_singledot_image_3.png,380.79985797052217,381.0502194205008,,,,,1,1,2024-10-11_16h33.49.368,visual,2024.1.5,119.39894618080346,
1_con_totaldot,0.25,1,31,9,567,6,,,,1_con_totaldot_image_3.png,381.15683330452015,381.40839408751054,,,,,1,1,2024-10-11_16h33.49.368,visual,2024.1.5,119.39894618080346,
3_con_singledot,0.25,3,31,10,568,2,,,,3_con_singledot_image_3.png,381.5160046375153,381.76764267051186,,,,,1,1,2024-10-11_16h33.49.368,visual,2024.1.5,119.39894618080346,
1_con_singledot,0.25,1,31,11,569,0,,,,1_con_singledot_image_3.png,381.87428551252236,382.1247708375129,,,,,1,1,2024-10-11_16h33.49.368,visual,2024.1.5,119.39894618080346,
5_con_totaldot,0.25,5,31,12,570,10,,,,5_con_totaldot_image_3.png,382.23325534551117,382.48394904550224,,,,,1,1,2024-10-11_16h33.49.368,visual,2024.1.5,119.39894618080346,
3_con_circum,0.25,3,31,13,571,14,,,,3_con_circum_image_3.png,382.5906518875185,382.8418218795094,,,,,1,1,2024-10-11_16h33.49.368,visual,2024.1.5,119.39894618080346,
1_con_circum,0.25,1,31,14,572,12,,,,1_con_circum_image_3.png,382.9503543455125,383.2008107545087,,,,,1,1,2024-10-11_16h33.49.368,visual,2024.1.5,119.39894618080346,
4_con_totaldot,0.25,4,31,15,573,9,,,,4_con_totaldot_image_3.png,383.3092578455166,383.56794100450935,,,,,1,1,2024-10-11_16h33.49.368,visual,2024.1.5,119.39894618080346,
4_con_singledot,0.25,4,31,16,574,3,,,,4_con_singledot_image_3.png,383.6765380955098,383.9335701705102,,,,,1,1,2024-10-11_16h33.49.368,visual,2024.1.5,119.39894618080346,
5_con_circum,0.25,5,31,17,575,16,,,,5_con_circum_image_3.png,384.04153005451957,384.29100554551115,3.wav,384.3933110830112,6.mp4,384.3933110830112,1,1,2024-10-11_16h33.49.368,visual,2024.1.5,119.39894618080346,
1_con_singledot,0.25,1,32,0,576,0,,,,1_con_singledot_image_42.png,386.21720423759837,386.46802337950504,,,,,1,1,2024-10-11_16h33.49.368,visual,2024.1.5,119.39894618080346,
6_con_circum,0.25,6,32,1,577,17,,,,6_con_circum_image_42.png,386.5749210955168,386.8250052955089,,,,,1,1,2024-10-11_16h33.49.368,visual,2024.1.5,119.39894618080346,
2_con_totaldot,0.25,2,32,2,578,7,,,,2_con_totaldot_image_42.png,386.93362109551384,387.18407854551043,,,,,1,1,2024-10-11_16h33.49.368,visual,2024.1.5,119.39894618080346,
5_con_totaldot,0.25,5,32,3,579,10,,,,5_con_totaldot_image_42.png,387.2908876375208,387.54173929551035,,,,,1,1,2024-10-11_16h33.49.368,visual,2024.1.5,119.39894618080346,
3_con_totaldot,0.25,3,32,4,580,8,,,,3_con_totaldot_image_42.png,387.6495226795145,387.9010930045013,,,,,1,1,2024-10-11_16h33.49.368,visual,2024.1.5,119.39894618080346,
3_con_circum,0.25,3,32,5,581,14,,,,3_con_circum_image_42.png,388.0079057205207,388.25805504549936,,,,,1,1,2024-10-11_16h33.49.368,visual,2024.1.5,119.39894618080346,
