condition,duration,numerosity,trials.thisRepN,trials.thisTrialN,trials.thisN,trials.thisIndex,thisRow.t,notes,text_welcome.started,image_name,image_number,image.started,image.stopped,audio_name,audio_started,movie_name,movie_started,participant,session,date|hid,expName|hid,psychopyVersion|hid,frameRate,
4_con_totaldot,0.25,4,0,0,0,9,,,119.43533291702624,4_con_totaldot_image_60.png,60,121.68309910844545,121.93219909621402,,,,,1,1,2024-10-28_18h31.36.691,visual,2024.1.5,120.43047788519208,
6_con_totaldot,0.25,6,0,1,1,11,,,,6_con_totaldot_image_42.png,42,122.04124899657909,122.29660905422642,,,,,1,1,2024-10-28_18h31.36.691,visual,2024.1.5,120.43047788519208,
1_con_totaldot,0.25,1,0,2,2,6,,,,1_con_totaldot_image_38.png,38,122.40335078753996,122.65442847125232,,,,,1,1,2024-10-28_18h31.36.691,visual,2024.1.5,120.43047788519208,
6_con_singledot,0.25,6,0,3,3,5,,,,6_con_singledot_image_40.png,40,122.7624199544778,123.01334142920095,,,,,1,1,2024-10-28_18h31.36.691,visual,2024.1.5,120.43047788519208,
3_con_circum,0.25,3,0,4,4,14,,,,3_con_circum_image_25.png,25,123.11993453751784,123.37238455414771,,,,,1,1,2024-10-28_18h31.36.691,visual,2024.1.5,120.43047788519208,
1_con_circum,0.25,1,0,5,5,12,,,,1_con_circum_image_52.png,52,123.48009512149729,123.730498804152,,,,,1,1,2024-10-28_18h31.36.691,visual,2024.1.5,120.43047788519208,
5_con_singledot,0.25,5,0,6,6,4,,,,5_con_singledot_image_53.png,53,123.83703966247849,124.0874715541955,,,,,1,1,2024-10-28_18h31.36.691,visual,2024.1.5,120.43047788519208,
6_con_circum,0.25,6,0,7,7,17,,,,6_con_circum_image_48.png,48,124.19629757951479,124.44771563718095,,,,,1,1,2024-10-28_18h31.36.691,visual,2024.1.5,120.43047788519208,
3_con_singledot,0.25,3,0,8,8,2,,,,3_con_singledot_image_10.png,10,124.55514770450536,124.80415738725569,,,,,1,1,2024-10-28_18h31.36.691,visual,2024.1.5,120.43047788519208,
3_con_totaldot,0.25,3,0,9,9,8,,,,3_con_totaldot_image_68.png,68,124.91303591250907,125.16404788722284,,,,,1,1,2024-10-28_18h31.36.691,visual,2024.1.5,120.43047788519208,
4_con_circum,0.25,4,0,10,10,15,,,,4_con_circum_image_33.png,33,125.27070145455654,125.5221523462329,,,,,1,1,2024-10-28_18h31.36.691,visual,2024.1.5,120.43047788519208,
5_con_circum,0.25,5,0,11,11,16,,,,5_con_circum_image_68.png,68,125.62940912153572,125.88065417916513,,,,,1,1,2024-10-28_18h31.36.691,visual,2024.1.5,120.43047788519208,
2_con_totaldot,0.25,2,0,12,12,7,,,,2_con_totaldot_image_58.png,58,125.98727232946548,126.23813509617466,,,,,1,1,2024-10-28_18h31.36.691,visual,2024.1.5,120.43047788519208,
1_con_singledot,0.25,1,0,13,13,0,,,,1_con_singledot_image_15.png,15,126.34628420446533,126.59726851214654,,,,,1,1,2024-10-28_18h31.36.691,visual,2024.1.5,120.43047788519208,
5_con_totaldot,0.25,5,0,14,14,10,,,,5_con_totaldot_image_7.png,7,126.7039684125455,126.95510597121901,,,,,1,1,2024-10-28_18h31.36.691,visual,2024.1.5,120.43047788519208,
2_con_circum,0.25,2,0,15,15,13,,,,2_con_circum_image_50.png,50,127.06306582952384,127.3140802622307,,,,,1,1,2024-10-28_18h31.36.691,visual,2024.1.5,120.43047788519208,
2_con_singledot,0.25,2,0,16,16,1,,,,2_con_singledot_image_62.png,62,127.42251653755083,127.68085272123571,,,,,1,1,2024-10-28_18h31.36.691,visual,2024.1.5,120.43047788519208,
4_con_singledot,0.25,4,0,17,17,3,,,,4_con_singledot_image_48.png,48,127.78744916252326,128.03753938714507,2.wav,128.1392418750329,11.mp4,128.1392418750329,1,1,2024-10-28_18h31.36.691,visual,2024.1.5,120.43047788519208,
5_con_singledot,0.25,5,1,0,18,4,,,,5_con_singledot_image_58.png,58,129.98448343593626,130.23758942915592,,,,,1,1,2024-10-28_18h31.36.691,visual,2024.1.5,120.43047788519208,
4_con_circum,0.25,4,1,1,19,15,,,,4_con_circum_image_42.png,42,130.34589953750836,130.59687334615737,,,,,1,1,2024-10-28_18h31.36.691,visual,2024.1.5,120.43047788519208,
1_con_circum,0.25,1,1,2,20,12,,,,1_con_circum_image_7.png,7,130.70355953748802,130.95516238724812,,,,,1,1,2024-10-28_18h31.36.691,visual,2024.1.5,120.43047788519208,
4_con_totaldot,0.25,4,1,3,21,9,,,,4_con_totaldot_image_16.png,16,131.0629340374842,131.31436167915817,,,,,1,1,2024-10-28_18h31.36.691,visual,2024.1.5,120.43047788519208,
5_con_totaldot,0.25,5,1,4,22,10,,,,5_con_totaldot_image_9.png,9,131.4209409125149,131.6716418462107,,,,,1,1,2024-10-28_18h31.36.691,visual,2024.1.5,120.43047788519208,
2_con_circum,0.25,2,1,5,23,13,,,,2_con_circum_image_43.png,43,131.779077412514,132.03028613715432,,,,,1,1,2024-10-28_18h31.36.691,visual,2024.1.5,120.43047788519208,
2_con_singledot,0.25,2,1,6,24,1,,,,2_con_singledot_image_12.png,12,132.13686707948798,132.38818767925258,,,,,1,1,2024-10-28_18h31.36.691,visual,2024.1.5,120.43047788519208,
1_con_singledot,0.25,1,1,7,25,0,,,,1_con_singledot_image_29.png,29,132.49587116257752,132.74740280422847,,,,,1,1,2024-10-28_18h31.36.691,visual,2024.1.5,120.43047788519208,
3_con_circum,0.25,3,1,8,26,14,,,,3_con_circum_image_58.png,58,132.85400949646717,133.10373797118663,,,,,1,1,2024-10-28_18h31.36.691,visual,2024.1.5,120.43047788519208,
6_con_singledot,0.25,6,1,9,27,5,,,,6_con_singledot_image_42.png,42,133.21296245448755,133.4644292622339,,,,,1,1,2024-10-28_18h31.36.691,visual,2024.1.5,120.43047788519208,
1_con_totaldot,0.25,1,1,10,28,6,,,,1_con_totaldot_image_68.png,68,133.5709634124767,133.82166042914614,,,,,1,1,2024-10-28_18h31.36.691,visual,2024.1.5,120.43047788519208,
2_con_totaldot,0.25,2,1,11,29,7,,,,2_con_totaldot_image_61.png,61,133.9300595795037,134.18033459621947,,,,,1,1,2024-10-28_18h31.36.691,visual,2024.1.5,120.43047788519208,
3_con_singledot,0.25,3,1,12,30,2,,,,3_con_singledot_image_58.png,58,134.28701145453377,134.53860247114207,,,,,1,1,2024-10-28_18h31.36.691,visual,2024.1.5,120.43047788519208,
6_con_totaldot,0.25,6,1,13,31,11,,,,6_con_totaldot_image_7.png,7,134.64634262148755,134.89698488721623,,,,,1,1,2024-10-28_18h31.36.691,visual,2024.1.5,120.43047788519208,
5_con_circum,0.25,5,1,14,32,16,,,,5_con_circum_image_39.png,39,135.00388116256798,135.25482305421028,,,,,1,1,2024-10-28_18h31.36.691,visual,2024.1.5,120.43047788519208,
6_con_circum,0.25,6,1,15,33,17,,,,6_con_circum_image_25.png,25,135.36296766246667,135.61367142924573,,,,,1,1,2024-10-28_18h31.36.691,visual,2024.1.5,120.43047788519208,
3_con_totaldot,0.25,3,1,16,34,8,,,,3_con_totaldot_image_56.png,56,135.72016932950353,135.9710562211927,,,,,1,1,2024-10-28_18h31.36.691,visual,2024.1.5,120.43047788519208,
4_con_singledot,0.25,4,1,17,35,3,,,,4_con_singledot_image_28.png,28,136.0799352465663,136.3311333041871,1.wav,136.43269029201474,15.mp4,136.43269029201474,1,1,2024-10-28_18h31.36.691,visual,2024.1.5,120.43047788519208,
2_con_singledot,0.25,2,2,0,36,1,,,,2_con_singledot_image_1.png,1,138.27390068601815,138.53090701219625,,,,,1,1,2024-10-28_18h31.36.691,visual,2024.1.5,120.43047788519208,
3_con_circum,0.25,3,2,1,37,14,,,,3_con_circum_image_26.png,26,138.63776691253295,138.88793151222634,,,,,1,1,2024-10-28_18h31.36.691,visual,2024.1.5,120.43047788519208,
3_con_singledot,0.25,3,2,2,38,2,,,,3_con_singledot_image_61.png,61,138.99602849648798,139.25145388722885,,,,,1,1,2024-10-28_18h31.36.691,visual,2024.1.5,120.43047788519208,
2_con_totaldot,0.25,2,2,3,39,7,,,,2_con_totaldot_image_31.png,31,139.36209782953372,139.6111837212462,,,,,1,1,2024-10-28_18h31.36.691,visual,2024.1.5,120.43047788519208,
6_con_totaldot,0.25,6,2,4,40,11,,,,6_con_totaldot_image_55.png,55,139.7214326625224,139.97124013714492,,,,,1,1,2024-10-28_18h31.36.691,visual,2024.1.5,120.43047788519208,
4_con_singledot,0.25,4,2,5,41,3,,,,4_con_singledot_image_39.png,39,140.08002245456444,140.33123892920557,,,,,1,1,2024-10-28_18h31.36.691,visual,2024.1.5,120.43047788519208,
5_con_singledot,0.25,5,2,6,42,4,,,,5_con_singledot_image_13.png,13,140.43781195448244,140.68867747115436,,,,,1,1,2024-10-28_18h31.36.691,visual,2024.1.5,120.43047788519208,
1_con_singledot,0.25,1,2,7,43,0,,,,1_con_singledot_image_8.png,8,140.79595232948193,141.04704797118902,,,,,1,1,2024-10-28_18h31.36.691,visual,2024.1.5,120.43047788519208,
6_con_singledot,0.25,6,2,8,44,5,,,,6_con_singledot_image_36.png,36,141.15366420447825,141.4045048462227,,,,,1,1,2024-10-28_18h31.36.691,visual,2024.1.5,120.43047788519208,
1_con_circum,0.25,1,2,9,45,12,,,,1_con_circum_image_45.png,45,141.5142949545523,141.76445505421142,,,,,1,1,2024-10-28_18h31.36.691,visual,2024.1.5,120.43047788519208,
6_con_circum,0.25,6,2,10,46,17,,,,6_con_circum_image_63.png,63,141.87100928749422,142.1244815122569,,,,,1,1,2024-10-28_18h31.36.691,visual,2024.1.5,120.43047788519208,
5_con_circum,0.25,5,2,11,47,16,,,,5_con_circum_image_67.png,67,142.2324459545314,142.4984025962418,,,,,1,1,2024-10-28_18h31.36.691,visual,2024.1.5,120.43047788519208,
4_con_totaldot,0.25,4,2,12,48,9,,,,4_con_totaldot_image_7.png,7,142.6144675794756,142.8645125122508,,,,,1,1,2024-10-28_18h31.36.691,visual,2024.1.5,120.43047788519208,
4_con_circum,0.25,4,2,13,49,15,,,,4_con_circum_image_35.png,35,142.9705602875445,143.2213082622271,,,,,1,1,2024-10-28_18h31.36.691,visual,2024.1.5,120.43047788519208,
3_con_totaldot,0.25,3,2,14,50,8,,,,3_con_totaldot_image_59.png,59,143.33008795448112,143.58143592919222,,,,,1,1,2024-10-28_18h31.36.691,visual,2024.1.5,120.43047788519208,
1_con_totaldot,0.25,1,2,15,51,6,,,,1_con_totaldot_image_50.png,50,143.68993103755636,143.9480654292507,,,,,1,1,2024-10-28_18h31.36.691,visual,2024.1.5,120.43047788519208,
5_con_totaldot,0.25,5,2,16,52,10,,,,5_con_totaldot_image_12.png,12,144.05653878750744,144.31466647123452,,,,,1,1,2024-10-28_18h31.36.691,visual,2024.1.5,120.43047788519208,
2_con_circum,0.25,2,2,17,53,13,,,,2_con_circum_image_37.png,37,144.42124757957643,144.67254926220048,3.wav,144.7725939169759,15.mp4,144.7725939169759,1,1,2024-10-28_18h31.36.691,visual,2024.1.5,120.43047788519208,
6_con_circum,0.25,6,3,0,54,17,,,,6_con_circum_image_44.png,44,146.59751964390742,146.8473264292348,,,,,1,1,2024-10-28_18h31.36.691,visual,2024.1.5,120.43047788519208,
6_con_totaldot,0.25,6,3,1,55,11,,,,6_con_totaldot_image_8.png,8,146.95417728747705,147.20473613720387,,,,,1,1,2024-10-28_18h31.36.691,visual,2024.1.5,120.43047788519208,
2_con_circum,0.25,2,3,2,56,13,,,,2_con_circum_image_25.png,25,147.31370591251178,147.563846887229,,,,,1,1,2024-10-28_18h31.36.691,visual,2024.1.5,120.43047788519208,
1_con_totaldot,0.25,1,3,3,57,6,,,,1_con_totaldot_image_20.png,20,147.67056366249452,147.92179697125684,,,,,1,1,2024-10-28_18h31.36.691,visual,2024.1.5,120.43047788519208,
4_con_circum,0.25,4,3,4,58,15,,,,4_con_circum_image_40.png,40,148.03046107951084,148.28100880424026,,,,,1,1,2024-10-28_18h31.36.691,visual,2024.1.5,120.43047788519208,
5_con_totaldot,0.25,5,3,5,59,10,,,,5_con_totaldot_image_33.png,33,148.38752170449587,148.63818805422633,,,,,1,1,2024-10-28_18h31.36.691,visual,2024.1.5,120.43047788519208,
6_con_singledot,0.25,6,3,6,60,5,,,,6_con_singledot_image_9.png,9,148.7462294965051,148.99811276225373,,,,,1,1,2024-10-28_18h31.36.691,visual,2024.1.5,120.43047788519208,
2_con_totaldot,0.25,2,3,7,61,7,,,,2_con_totaldot_image_64.png,64,149.10536057951393,149.35543455418664,,,,,1,1,2024-10-28_18h31.36.691,visual,2024.1.5,120.43047788519208,
1_con_singledot,0.25,1,3,8,62,0,,,,1_con_singledot_image_38.png,38,149.46328737151342,149.71463405424728,,,,,1,1,2024-10-28_18h31.36.691,visual,2024.1.5,120.43047788519208,
5_con_circum,0.25,5,3,9,63,16,,,,5_con_circum_image_26.png,26,149.8212500374764,150.07274459619074,,,,,1,1,2024-10-28_18h31.36.691,visual,2024.1.5,120.43047788519208,
3_con_singledot,0.25,3,3,10,64,2,,,,3_con_singledot_image_37.png,37,150.179625454545,150.43108034625183,,,,,1,1,2024-10-28_18h31.36.691,visual,2024.1.5,120.43047788519208,
3_con_totaldot,0.25,3,3,11,65,8,,,,3_con_totaldot_image_50.png,50,150.53768078756983,150.7878733872436,,,,,1,1,2024-10-28_18h31.36.691,visual,2024.1.5,120.43047788519208,
4_con_totaldot,0.25,4,3,12,66,9,,,,4_con_totaldot_image_62.png,62,150.89756849647964,151.14811372119001,,,,,1,1,2024-10-28_18h31.36.691,visual,2024.1.5,120.43047788519208,
1_con_circum,0.25,1,3,13,67,12,,,,1_con_circum_image_44.png,44,151.25434941246638,151.50600713714957,,,,,1,1,2024-10-28_18h31.36.691,visual,2024.1.5,120.43047788519208,
3_con_circum,0.25,3,3,14,68,14,,,,3_con_circum_image_53.png,53,151.61504274648613,151.8708981372416,,,,,1,1,2024-10-28_18h31.36.691,visual,2024.1.5,120.43047788519208,
5_con_singledot,0.25,5,3,15,69,4,,,,5_con_singledot_image_5.png,5,151.9803447875427,152.23151584623847,,,,,1,1,2024-10-28_18h31.36.691,visual,2024.1.5,120.43047788519208,
4_con_singledot,0.25,4,3,16,70,3,,,,4_con_singledot_image_63.png,63,152.33809782955794,152.58837188724428,,,,,1,1,2024-10-28_18h31.36.691,visual,2024.1.5,120.43047788519208,
2_con_singledot,0.25,2,3,17,71,1,,,,2_con_singledot_image_66.png,66,152.69615953748578,152.94735434618778,1.wav,153.04698824998923,11.mp4,153.04698824998923,1,1,2024-10-28_18h31.36.691,visual,2024.1.5,120.43047788519208,
2_con_circum,0.25,2,4,0,72,13,,,,2_con_circum_image_39.png,39,154.89158831101375,155.14067117918748,,,,,1,1,2024-10-28_18h31.36.691,visual,2024.1.5,120.43047788519208,
5_con_circum,0.25,5,4,1,73,16,,,,5_con_circum_image_35.png,35,155.2483707465697,155.4974294712534,,,,,1,1,2024-10-28_18h31.36.691,visual,2024.1.5,120.43047788519208,
2_con_singledot,0.25,2,4,2,74,1,,,,2_con_singledot_image_32.png,32,155.60413653748108,155.854898762214,,,,,1,1,2024-10-28_18h31.36.691,visual,2024.1.5,120.43047788519208,
6_con_circum,0.25,6,4,3,75,17,,,,6_con_circum_image_16.png,16,155.96348241246304,156.21407147115096,,,,,1,1,2024-10-28_18h31.36.691,visual,2024.1.5,120.43047788519208,
6_con_totaldot,0.25,6,4,4,76,11,,,,6_con_totaldot_image_61.png,61,156.32080153755376,156.57240017924923,,,,,1,1,2024-10-28_18h31.36.691,visual,2024.1.5,120.43047788519208,
1_con_circum,0.25,1,4,5,77,12,,,,1_con_circum_image_15.png,15,156.6796307875309,156.93126767922658,,,,,1,1,2024-10-28_18h31.36.691,visual,2024.1.5,120.43047788519208,
5_con_totaldot,0.25,5,4,6,78,10,,,,5_con_totaldot_image_22.png,22,157.03787599650676,157.28909209617413,,,,,1,1,2024-10-28_18h31.36.691,visual,2024.1.5,120.43047788519208,
1_con_totaldot,0.25,1,4,7,79,6,,,,1_con_totaldot_image_70.png,70,157.39637320449108,157.64745284619275,,,,,1,1,2024-10-28_18h31.36.691,visual,2024.1.5,120.43047788519208,
3_con_circum,0.25,3,4,8,80,14,,,,3_con_circum_image_68.png,68,157.75408453757407,158.0049273872515,,,,,1,1,2024-10-28_18h31.36.691,visual,2024.1.5,120.43047788519208,
4_con_totaldot,0.25,4,4,9,81,9,,,,4_con_totaldot_image_56.png,56,158.11313012156168,158.36501901214942,,,,,1,1,2024-10-28_18h31.36.691,visual,2024.1.5,120.43047788519208,
3_con_singledot,0.25,3,4,10,82,2,,,,3_con_singledot_image_12.png,12,158.47180420446674,158.72230238714255,,,,,1,1,2024-10-28_18h31.36.691,visual,2024.1.5,120.43047788519208,
6_con_singledot,0.25,6,4,11,83,5,,,,6_con_singledot_image_46.png,46,158.83025678754782,159.080817012256,,,,,1,1,2024-10-28_18h31.36.691,visual,2024.1.5,120.43047788519208,
3_con_totaldot,0.25,3,4,12,84,8,,,,3_con_totaldot_image_66.png,66,159.18746037147937,159.43873788721393,,,,,1,1,2024-10-28_18h31.36.691,visual,2024.1.5,120.43047788519208,
5_con_singledot,0.25,5,4,13,85,4,,,,5_con_singledot_image_50.png,50,159.5466151214903,159.79839697121642,,,,,1,1,2024-10-28_18h31.36.691,visual,2024.1.5,120.43047788519208,
4_con_singledot,0.25,4,4,14,86,3,,,,4_con_singledot_image_7.png,7,159.9049557875376,160.15534442921634,,,,,1,1,2024-10-28_18h31.36.691,visual,2024.1.5,120.43047788519208,
1_con_singledot,0.25,1,4,15,87,0,,,,1_con_singledot_image_3.png,3,160.2630993294995,160.517201096192,,,,,1,1,2024-10-28_18h31.36.691,visual,2024.1.5,120.43047788519208,
4_con_circum,0.25,4,4,16,88,15,,,,4_con_circum_image_12.png,12,160.62548237149602,160.88098801220767,,,,,1,1,2024-10-28_18h31.36.691,visual,2024.1.5,120.43047788519208,
2_con_totaldot,0.25,2,4,17,89,7,,,,2_con_totaldot_image_24.png,24,160.98905412149614,161.23909667916595,1.wav,161.33948570804205,11.mp4,161.33948570804205,1,1,2024-10-28_18h31.36.691,visual,2024.1.5,120.43047788519208,
1_con_singledot,0.25,1,5,0,90,0,,,,1_con_singledot_image_14.png,14,163.17525031098629,163.43091984619386,,,,,1,1,2024-10-28_18h31.36.691,visual,2024.1.5,120.43047788519208,
4_con_singledot,0.25,4,5,1,91,3,,,,4_con_singledot_image_8.png,8,163.5377534965053,163.78844755424652,,,,,1,1,2024-10-28_18h31.36.691,visual,2024.1.5,120.43047788519208,
3_con_circum,0.25,3,5,2,92,14,,,,3_con_circum_image_66.png,66,163.89706687147262,164.14762797115836,,,,,1,1,2024-10-28_18h31.36.691,visual,2024.1.5,120.43047788519208,
6_con_circum,0.25,6,5,3,93,17,,,,6_con_circum_image_36.png,36,164.2541639544768,164.5051979711512,,,,,1,1,2024-10-28_18h31.36.691,visual,2024.1.5,120.43047788519208,
4_con_totaldot,0.25,4,5,4,94,9,,,,4_con_totaldot_image_24.png,24,164.61309328752102,164.86505338714923,,,,,1,1,2024-10-28_18h31.36.691,visual,2024.1.5,120.43047788519208,
6_con_singledot,0.25,6,5,5,95,5,,,,6_con_singledot_image_27.png,27,164.97165070457848,165.22235447124112,,,,,1,1,2024-10-28_18h31.36.691,visual,2024.1.5,120.43047788519208,
5_con_circum,0.25,5,5,6,96,16,,,,5_con_circum_image_61.png,61,165.3297217875486,165.58099601222202,,,,,1,1,2024-10-28_18h31.36.691,visual,2024.1.5,120.43047788519208,
3_con_singledot,0.25,3,5,7,97,2,,,,3_con_singledot_image_20.png,20,165.68695612153968,165.93848467923235,,,,,1,1,2024-10-28_18h31.36.691,visual,2024.1.5,120.43047788519208,
2_con_circum,0.25,2,5,8,98,13,,,,2_con_circum_image_32.png,32,166.04726816255132,166.2975350541761,,,,,1,1,2024-10-28_18h31.36.691,visual,2024.1.5,120.43047788519208,
4_con_circum,0.25,4,5,9,99,15,,,,4_con_circum_image_58.png,58,166.4041460795095,166.65520580417942,,,,,1,1,2024-10-28_18h31.36.691,visual,2024.1.5,120.43047788519208,
2_con_singledot,0.25,2,5,10,100,1,,,,2_con_singledot_image_39.png,39,166.76316741255576,167.01431201214436,,,,,1,1,2024-10-28_18h31.36.691,visual,2024.1.5,120.43047788519208,
1_con_circum,0.25,1,5,11,101,12,,,,1_con_circum_image_8.png,8,167.1209971624892,167.37261659619398,,,,,1,1,2024-10-28_18h31.36.691,visual,2024.1.5,120.43047788519208,
3_con_totaldot,0.25,3,5,12,102,8,,,,3_con_totaldot_image_17.png,17,167.48161124654578,167.73181667914614,,,,,1,1,2024-10-28_18h31.36.691,visual,2024.1.5,120.43047788519208,
5_con_singledot,0.25,5,5,13,103,4,,,,5_con_singledot_image_27.png,27,167.83845770447513,168.08877738718874,,,,,1,1,2024-10-28_18h31.36.691,visual,2024.1.5,120.43047788519208,
5_con_totaldot,0.25,5,5,14,104,10,,,,5_con_totaldot_image_63.png,63,168.19704337157307,168.448936804221,,,,,1,1,2024-10-28_18h31.36.691,visual,2024.1.5,120.43047788519208,
1_con_totaldot,0.25,1,5,15,105,6,,,,1_con_totaldot_image_65.png,65,168.55640791247131,168.8059313042555,,,,,1,1,2024-10-28_18h31.36.691,visual,2024.1.5,120.43047788519208,
6_con_totaldot,0.25,6,5,16,106,11,,,,6_con_totaldot_image_26.png,26,168.91335662147029,169.16521372124552,,,,,1,1,2024-10-28_18h31.36.691,visual,2024.1.5,120.43047788519208,
2_con_totaldot,0.25,2,5,17,107,7,,,,2_con_totaldot_image_56.png,56,169.27177403757813,169.52182167922146,5.wav,169.62362416705582,4.mp4,169.62362416705582,1,1,2024-10-28_18h31.36.691,visual,2024.1.5,120.43047788519208,
4_con_circum,0.25,4,6,0,108,15,,,,4_con_circum_image_67.png,67,171.46091051895635,171.71482059617992,,,,,1,1,2024-10-28_18h31.36.691,visual,2024.1.5,120.43047788519208,
3_con_totaldot,0.25,3,6,1,109,8,,,,3_con_totaldot_image_49.png,49,171.8213861215161,172.07242013714276,,,,,1,1,2024-10-28_18h31.36.691,visual,2024.1.5,120.43047788519208,
1_con_circum,0.25,1,6,2,110,12,,,,1_con_circum_image_26.png,26,172.18026532949878,172.43102263719774,,,,,1,1,2024-10-28_18h31.36.691,visual,2024.1.5,120.43047788519208,
3_con_circum,0.25,3,6,3,111,14,,,,3_con_circum_image_46.png,46,172.537715996569,172.78967247125692,,,,,1,1,2024-10-28_18h31.36.691,visual,2024.1.5,120.43047788519208,
4_con_totaldot,0.25,4,6,4,112,9,,,,4_con_totaldot_image_14.png,14,172.89662978746927,173.14843722120858,,,,,1,1,2024-10-28_18h31.36.691,visual,2024.1.5,120.43047788519208,
2_con_totaldot,0.25,2,6,5,113,7,,,,2_con_totaldot_image_8.png,8,173.2550166215049,173.50564692916814,,,,,1,1,2024-10-28_18h31.36.691,visual,2024.1.5,120.43047788519208,
5_con_singledot,0.25,5,6,6,114,4,,,,5_con_singledot_image_62.png,62,173.614020871534,173.86511430414393,,,,,1,1,2024-10-28_18h31.36.691,visual,2024.1.5,120.43047788519208,
6_con_circum,0.25,6,6,7,115,17,,,,6_con_circum_image_5.png,5,173.97160037148277,174.22185201223473,,,,,1,1,2024-10-28_18h31.36.691,visual,2024.1.5,120.43047788519208,
6_con_singledot,0.25,6,6,8,116,5,,,,6_con_singledot_image_3.png,3,174.33016762156038,174.58125597124453,,,,,1,1,2024-10-28_18h31.36.691,visual,2024.1.5,120.43047788519208,
5_con_totaldot,0.25,5,6,9,117,10,,,,5_con_totaldot_image_56.png,56,174.6879199544899,174.93798063721042,,,,,1,1,2024-10-28_18h31.36.691,visual,2024.1.5,120.43047788519208,
5_con_circum,0.25,5,6,10,118,16,,,,5_con_circum_image_12.png,12,175.04773278750943,175.29869284622836,,,,,1,1,2024-10-28_18h31.36.691,visual,2024.1.5,120.43047788519208,
2_con_singledot,0.25,2,6,11,119,1,,,,2_con_singledot_image_3.png,3,175.40539366246665,175.65532484618015,,,,,1,1,2024-10-28_18h31.36.691,visual,2024.1.5,120.43047788519208,
6_con_totaldot,0.25,6,6,12,120,11,,,,6_con_totaldot_image_14.png,14,175.7640003715176,176.0153680121526,,,,,1,1,2024-10-28_18h31.36.691,visual,2024.1.5,120.43047788519208,
1_con_singledot,0.25,1,6,13,121,0,,,,1_con_singledot_image_20.png,20,176.1219103295123,176.37291859616525,,,,,1,1,2024-10-28_18h31.36.691,visual,2024.1.5,120.43047788519208,
2_con_circum,0.25,2,6,14,122,13,,,,2_con_circum_image_64.png,64,176.4810021215351,176.73159038720186,,,,,1,1,2024-10-28_18h31.36.691,visual,2024.1.5,120.43047788519208,
3_con_singledot,0.25,3,6,15,123,2,,,,3_con_singledot_image_49.png,49,176.83811424656304,177.088663387252,,,,,1,1,2024-10-28_18h31.36.691,visual,2024.1.5,120.43047788519208,
4_con_singledot,0.25,4,6,16,124,3,,,,4_con_singledot_image_17.png,17,177.19672003756276,177.44785567922517,,,,,1,1,2024-10-28_18h31.36.691,visual,2024.1.5,120.43047788519208,
1_con_totaldot,0.25,1,6,17,125,6,,,,1_con_totaldot_image_44.png,44,177.5546607875265,177.80587555423844,4.wav,177.90645045798738,7.mp4,177.90645045798738,1,1,2024-10-28_18h31.36.691,visual,2024.1.5,120.43047788519208,
4_con_circum,0.25,4,7,0,126,15,,,,4_con_circum_image_57.png,57,179.7483031859854,179.9978773872368,,,,,1,1,2024-10-28_18h31.36.691,visual,2024.1.5,120.43047788519208,
5_con_circum,0.25,5,7,1,127,16,,,,5_con_circum_image_59.png,59,180.10459816253277,180.35476147118024,,,,,1,1,2024-10-28_18h31.36.691,visual,2024.1.5,120.43047788519208,
6_con_circum,0.25,6,7,2,128,17,,,,6_con_circum_image_13.png,13,180.46434124647638,180.71457247124053,,,,,1,1,2024-10-28_18h31.36.691,visual,2024.1.5,120.43047788519208,
3_con_totaldot,0.25,3,7,3,129,8,,,,3_con_totaldot_image_51.png,51,180.82110478747634,181.0721235121833,,,,,1,1,2024-10-28_18h31.36.691,visual,2024.1.5,120.43047788519208,
5_con_totaldot,0.25,5,7,4,130,10,,,,5_con_totaldot_image_21.png,21,181.18015707954763,181.431656887196,,,,,1,1,2024-10-28_18h31.36.691,visual,2024.1.5,120.43047788519208,
3_con_singledot,0.25,3,7,5,131,2,,,,3_con_singledot_image_63.png,63,181.53861574649343,181.78920676223933,,,,,1,1,2024-10-28_18h31.36.691,visual,2024.1.5,120.43047788519208,
1_con_circum,0.25,1,7,6,132,12,,,,1_con_circum_image_54.png,54,181.89689795447046,182.15012163717765,,,,,1,1,2024-10-28_18h31.36.691,visual,2024.1.5,120.43047788519208,
4_con_totaldot,0.25,4,7,7,133,9,,,,4_con_totaldot_image_6.png,6,182.25727345452177,182.5151587211527,,,,,1,1,2024-10-28_18h31.36.691,visual,2024.1.5,120.43047788519208,
2_con_totaldot,0.25,2,7,8,134,7,,,,2_con_totaldot_image_40.png,40,182.62171332952565,182.87224234619643,,,,,1,1,2024-10-28_18h31.36.691,visual,2024.1.5,120.43047788519208,
4_con_singledot,0.25,4,7,9,135,3,,,,4_con_singledot_image_12.png,12,182.98062782951163,183.23122876221314,,,,,1,1,2024-10-28_18h31.36.691,visual,2024.1.5,120.43047788519208,
1_con_singledot,0.25,1,7,10,136,0,,,,1_con_singledot_image_53.png,53,183.33782487148417,183.5886703462107,,,,,1,1,2024-10-28_18h31.36.691,visual,2024.1.5,120.43047788519208,
1_con_totaldot,0.25,1,7,11,137,6,,,,1_con_totaldot_image_43.png,43,183.69749824651515,183.9478550541913,,,,,1,1,2024-10-28_18h31.36.691,visual,2024.1.5,120.43047788519208,
6_con_totaldot,0.25,6,7,12,138,11,,,,6_con_totaldot_image_60.png,60,184.0543807044858,184.306305429223,,,,,1,1,2024-10-28_18h31.36.691,visual,2024.1.5,120.43047788519208,
3_con_circum,0.25,3,7,13,139,14,,,,3_con_circum_image_69.png,69,184.41351199657655,184.66467788724694,,,,,1,1,2024-10-28_18h31.36.691,visual,2024.1.5,120.43047788519208,
2_con_singledot,0.25,2,7,14,140,1,,,,2_con_singledot_image_2.png,2,184.77122137155382,185.02215076216962,,,,,1,1,2024-10-28_18h31.36.691,visual,2024.1.5,120.43047788519208,
5_con_singledot,0.25,5,7,15,141,4,,,,5_con_singledot_image_40.png,40,185.1308478714898,185.38126738721039,,,,,1,1,2024-10-28_18h31.36.691,visual,2024.1.5,120.43047788519208,
2_con_circum,0.25,2,7,16,142,13,,,,2_con_circum_image_55.png,55,185.4878515795106,185.73978647114708,,,,,1,1,2024-10-28_18h31.36.691,visual,2024.1.5,120.43047788519208,
6_con_singledot,0.25,6,7,17,143,5,,,,6_con_singledot_image_4.png,4,185.8468517874833,186.09846338725183,3.wav,186.19916316703893,11.mp4,186.19916316703893,1,1,2024-10-28_18h31.36.691,visual,2024.1.5,120.43047788519208,
3_con_singledot,0.25,3,8,0,144,2,,,,3_con_singledot_image_42.png,42,188.0324663529871,188.28418609618674,,,,,1,1,2024-10-28_18h31.36.691,visual,2024.1.5,120.43047788519208,
5_con_totaldot,0.25,5,8,1,145,10,,,,5_con_totaldot_image_13.png,13,188.397866579541,188.64866609617602,,,,,1,1,2024-10-28_18h31.36.691,visual,2024.1.5,120.43047788519208,
2_con_totaldot,0.25,2,8,2,146,7,,,,2_con_totaldot_image_41.png,41,188.75588187151587,189.0061133872019,,,,,1,1,2024-10-28_18h31.36.691,visual,2024.1.5,120.43047788519208,
5_con_singledot,0.25,5,8,3,147,4,,,,5_con_singledot_image_52.png,52,189.11354137149172,189.364898471185,,,,,1,1,2024-10-28_18h31.36.691,visual,2024.1.5,120.43047788519208,
2_con_singledot,0.25,2,8,4,148,1,,,,2_con_singledot_image_14.png,14,189.47316003749145,189.72288955424446,,,,,1,1,2024-10-28_18h31.36.691,visual,2024.1.5,120.43047788519208,
6_con_circum,0.25,6,8,5,149,17,,,,6_con_circum_image_7.png,7,189.83024291247128,190.0813853042433,,,,,1,1,2024-10-28_18h31.36.691,visual,2024.1.5,120.43047788519208,
6_con_totaldot,0.25,6,8,6,150,11,,,,6_con_totaldot_image_44.png,44,190.18735241256653,190.4397397622466,,,,,1,1,2024-10-28_18h31.36.691,visual,2024.1.5,120.43047788519208,
1_con_circum,0.25,1,8,7,151,12,,,,1_con_circum_image_17.png,17,190.5470133715542,190.79889022118877,,,,,1,1,2024-10-28_18h31.36.691,visual,2024.1.5,120.43047788519208,
5_con_circum,0.25,5,8,8,152,16,,,,5_con_circum_image_52.png,52,190.9054548715474,191.1557576372521,,,,,1,1,2024-10-28_18h31.36.691,visual,2024.1.5,120.43047788519208,
2_con_circum,0.25,2,8,9,153,13,,,,2_con_circum_image_29.png,29,191.2644635375589,191.51479134617838,,,,,1,1,2024-10-28_18h31.36.691,visual,2024.1.5,120.43047788519208,
1_con_singledot,0.25,1,8,10,154,0,,,,1_con_singledot_image_1.png,1,191.62134649646467,191.87296363725326,,,,,1,1,2024-10-28_18h31.36.691,visual,2024.1.5,120.43047788519208,
3_con_totaldot,0.25,3,8,11,155,8,,,,3_con_totaldot_image_65.png,65,191.98089141254312,192.23249742914922,,,,,1,1,2024-10-28_18h31.36.691,visual,2024.1.5,120.43047788519208,
6_con_singledot,0.25,6,8,12,156,5,,,,6_con_singledot_image_10.png,10,192.34038428748025,192.5896672212053,,,,,1,1,2024-10-28_18h31.36.691,visual,2024.1.5,120.43047788519208,
1_con_totaldot,0.25,1,8,13,157,6,,,,1_con_totaldot_image_41.png,41,192.6978004545206,192.9488765541697,,,,,1,1,2024-10-28_18h31.36.691,visual,2024.1.5,120.43047788519208,
3_con_circum,0.25,3,8,14,158,14,,,,3_con_circum_image_41.png,41,193.0554537875112,193.30635901216883,,,,,1,1,2024-10-28_18h31.36.691,visual,2024.1.5,120.43047788519208,
4_con_circum,0.25,4,8,15,159,15,,,,4_con_circum_image_13.png,13,193.41428762157446,193.6655687211547,,,,,1,1,2024-10-28_18h31.36.691,visual,2024.1.5,120.43047788519208,
4_con_singledot,0.25,4,8,16,160,3,,,,4_con_singledot_image_24.png,24,193.77217078751417,194.02297726217657,,,,,1,1,2024-10-28_18h31.36.691,visual,2024.1.5,120.43047788519208,
4_con_totaldot,0.25,4,8,17,161,9,,,,4_con_totaldot_image_2.png,2,194.13050145453306,194.38149959619622,1.wav,194.48044025001582,6.mp4,194.48044025001582,1,1,2024-10-28_18h31.36.691,visual,2024.1.5,120.43047788519208,
5_con_totaldot,0.25,5,9,0,162,10,,,,5_con_totaldot_image_67.png,67,196.3376431859331,196.58958172125276,,,,,1,1,2024-10-28_18h31.36.691,visual,2024.1.5,120.43047788519208,
6_con_circum,0.25,6,9,1,163,17,,,,6_con_circum_image_1.png,1,196.69762420451733,196.9482039711671,,,,,1,1,2024-10-28_18h31.36.691,visual,2024.1.5,120.43047788519208,
1_con_circum,0.25,1,9,2,164,12,,,,1_con_circum_image_46.png,46,197.05479720451402,197.30641867921221,,,,,1,1,2024-10-28_18h31.36.691,visual,2024.1.5,120.43047788519208,
6_con_singledot,0.25,6,9,3,165,5,,,,6_con_singledot_image_14.png,14,197.414610121469,197.66600292923394,,,,,1,1,2024-10-28_18h31.36.691,visual,2024.1.5,120.43047788519208,
2_con_totaldot,0.25,2,9,4,166,7,,,,2_con_totaldot_image_50.png,50,197.77482403751927,198.02681517917662,,,,,1,1,2024-10-28_18h31.36.691,visual,2024.1.5,120.43047788519208,
1_con_singledot,0.25,1,9,5,167,0,,,,1_con_singledot_image_21.png,21,198.13597441250457,198.39185347119346,,,,,1,1,2024-10-28_18h31.36.691,visual,2024.1.5,120.43047788519208,
3_con_totaldot,0.25,3,9,6,168,8,,,,3_con_totaldot_image_26.png,26,198.5012545794714,198.75574217925313,,,,,1,1,2024-10-28_18h31.36.691,visual,2024.1.5,120.43047788519208,
1_con_totaldot,0.25,1,9,7,169,6,,,,1_con_totaldot_image_28.png,28,198.86419732957145,199.1153678462375,,,,,1,1,2024-10-28_18h31.36.691,visual,2024.1.5,120.43047788519208,
3_con_circum,0.25,3,9,8,170,14,,,,3_con_circum_image_63.png,63,199.2221020794939,199.4776465122355,,,,,1,1,2024-10-28_18h31.36.691,visual,2024.1.5,120.43047788519208,
2_con_singledot,0.25,2,9,9,171,1,,,,2_con_singledot_image_37.png,37,199.59841820453292,199.84830380419734,,,,,1,1,2024-10-28_18h31.36.691,visual,2024.1.5,120.43047788519208,
6_con_totaldot,0.25,6,9,10,172,11,,,,6_con_totaldot_image_45.png,45,199.95509712148922,200.20661901219282,,,,,1,1,2024-10-28_18h31.36.691,visual,2024.1.5,120.43047788519208,
5_con_singledot,0.25,5,9,11,173,4,,,,5_con_singledot_image_8.png,8,200.31391532947308,200.56580755419563,,,,,1,1,2024-10-28_18h31.36.691,visual,2024.1.5,120.43047788519208,
4_con_totaldot,0.25,4,9,12,174,9,,,,4_con_totaldot_image_11.png,11,200.67235957954543,200.92427688722964,,,,,1,1,2024-10-28_18h31.36.691,visual,2024.1.5,120.43047788519208,
2_con_circum,0.25,2,9,13,175,13,,,,2_con_circum_image_12.png,12,201.03177957953883,201.281666262215,,,,,1,1,2024-10-28_18h31.36.691,visual,2024.1.5,120.43047788519208,
5_con_circum,0.25,5,9,14,176,16,,,,5_con_circum_image_23.png,23,201.38833595446775,201.6397459291853,,,,,1,1,2024-10-28_18h31.36.691,visual,2024.1.5,120.43047788519208,
3_con_singledot,0.25,3,9,15,177,2,,,,3_con_singledot_image_31.png,31,201.74813716248607,201.99830726222135,,,,,1,1,2024-10-28_18h31.36.691,visual,2024.1.5,120.43047788519208,
4_con_singledot,0.25,4,9,16,178,3,,,,4_con_singledot_image_31.png,31,202.1050565375015,202.358264762233,,,,,1,1,2024-10-28_18h31.36.691,visual,2024.1.5,120.43047788519208,
4_con_circum,0.25,4,9,17,179,15,,,,4_con_circum_image_65.png,65,202.46598874656482,202.71565567925572,2.wav,202.81524045800325,12.mp4,202.81524045800325,1,1,2024-10-28_18h31.36.691,visual,2024.1.5,120.43047788519208,
3_con_singledot,0.25,3,10,0,180,2,,,,3_con_singledot_image_4.png,4,204.66768218595533,204.9236027621897,,,,,1,1,2024-10-28_18h31.36.691,visual,2024.1.5,120.43047788519208,
4_con_totaldot,0.25,4,10,1,181,9,,,,4_con_totaldot_image_3.png,3,205.03128887149504,205.28205805425532,,,,,1,1,2024-10-28_18h31.36.691,visual,2024.1.5,120.43047788519208,
6_con_totaldot,0.25,6,10,2,182,11,,,,6_con_totaldot_image_22.png,22,205.38871278748846,205.6396285961615,,,,,1,1,2024-10-28_18h31.36.691,visual,2024.1.5,120.43047788519208,
1_con_singledot,0.25,1,10,3,183,0,,,,1_con_singledot_image_28.png,28,205.74729199656284,205.9991192212561,,,,,1,1,2024-10-28_18h31.36.691,visual,2024.1.5,120.43047788519208,
4_con_circum,0.25,4,10,4,184,15,,,,4_con_circum_image_55.png,55,206.1050738715101,206.35571459624916,,,,,1,1,2024-10-28_18h31.36.691,visual,2024.1.5,120.43047788519208,
1_con_totaldot,0.25,1,10,5,185,6,,,,1_con_totaldot_image_22.png,22,206.4646639545215,206.71506151221692,,,,,1,1,2024-10-28_18h31.36.691,visual,2024.1.5,120.43047788519208,
2_con_totaldot,0.25,2,10,6,186,7,,,,2_con_totaldot_image_35.png,35,206.82162957948165,207.07310130414552,,,,,1,1,2024-10-28_18h31.36.691,visual,2024.1.5,120.43047788519208,
6_con_singledot,0.25,6,10,7,187,5,,,,6_con_singledot_image_7.png,7,207.18049249653703,207.4317714711884,,,,,1,1,2024-10-28_18h31.36.691,visual,2024.1.5,120.43047788519208,
5_con_circum,0.25,5,10,8,188,16,,,,5_con_circum_image_56.png,56,207.53842395457903,207.78910005420911,,,,,1,1,2024-10-28_18h31.36.691,visual,2024.1.5,120.43047788519208,
6_con_circum,0.25,6,10,9,189,17,,,,6_con_circum_image_55.png,55,207.89804545447694,208.14836101224645,,,,,1,1,2024-10-28_18h31.36.691,visual,2024.1.5,120.43047788519208,
4_con_singledot,0.25,4,10,10,190,3,,,,4_con_singledot_image_36.png,36,208.25511603751218,208.50611563716083,,,,,1,1,2024-10-28_18h31.36.691,visual,2024.1.5,120.43047788519208,
2_con_singledot,0.25,2,10,11,191,1,,,,2_con_singledot_image_4.png,4,208.61451382953672,208.8650111791445,,,,,1,1,2024-10-28_18h31.36.691,visual,2024.1.5,120.43047788519208,
3_con_circum,0.25,3,10,12,192,14,,,,3_con_circum_image_32.png,32,208.97152032954617,209.22302280415315,,,,,1,1,2024-10-28_18h31.36.691,visual,2024.1.5,120.43047788519208,
1_con_circum,0.25,1,10,13,193,12,,,,1_con_circum_image_5.png,5,209.33104945446829,209.5817800541641,,,,,1,1,2024-10-28_18h31.36.691,visual,2024.1.5,120.43047788519208,
5_con_totaldot,0.25,5,10,14,194,10,,,,5_con_totaldot_image_35.png,35,209.6883451625006,209.94002422122284,,,,,1,1,2024-10-28_18h31.36.691,visual,2024.1.5,120.43047788519208,
5_con_singledot,0.25,5,10,15,195,4,,,,5_con_singledot_image_24.png,24,210.04735332955605,210.2988337212242,,,,,1,1,2024-10-28_18h31.36.691,visual,2024.1.5,120.43047788519208,
3_con_totaldot,0.25,3,10,16,196,8,,,,3_con_totaldot_image_27.png,27,210.40542095452545,210.65618126224726,,,,,1,1,2024-10-28_18h31.36.691,visual,2024.1.5,120.43047788519208,
2_con_circum,0.25,2,10,17,197,13,,,,2_con_circum_image_62.png,62,210.76518287155776,211.01554209624882,1.wav,211.11512645799667,13.mp4,211.11512645799667,1,1,2024-10-28_18h31.36.691,visual,2024.1.5,120.43047788519208,
6_con_totaldot,0.25,6,11,0,198,11,,,,6_con_totaldot_image_1.png,1,212.96953710292,213.22320538714993,,,,,1,1,2024-10-28_18h31.36.691,visual,2024.1.5,120.43047788519208,
4_con_circum,0.25,4,11,1,199,15,,,,4_con_circum_image_60.png,60,213.33120637149548,213.58252288717776,,,,,1,1,2024-10-28_18h31.36.691,visual,2024.1.5,120.43047788519208,
2_con_totaldot,0.25,2,11,2,200,7,,,,2_con_totaldot_image_30.png,30,213.68924774655605,213.93930001221597,,,,,1,1,2024-10-28_18h31.36.691,visual,2024.1.5,120.43047788519208,
3_con_circum,0.25,3,11,3,201,14,,,,3_con_circum_image_51.png,51,214.04803278746547,214.29925022125244,,,,,1,1,2024-10-28_18h31.36.691,visual,2024.1.5,120.43047788519208,
5_con_totaldot,0.25,5,11,4,202,10,,,,5_con_totaldot_image_17.png,17,214.4060520794708,214.65693792924284,,,,,1,1,2024-10-28_18h31.36.691,visual,2024.1.5,120.43047788519208,
5_con_singledot,0.25,5,11,5,203,4,,,,5_con_singledot_image_11.png,11,214.76403728751464,215.0152965962421,,,,,1,1,2024-10-28_18h31.36.691,visual,2024.1.5,120.43047788519208,
1_con_singledot,0.25,1,11,6,204,0,,,,1_con_singledot_image_50.png,50,215.12191582955418,215.3730082621565,,,,,1,1,2024-10-28_18h31.36.691,visual,2024.1.5,120.43047788519208,
3_con_totaldot,0.25,3,11,7,205,8,,,,3_con_totaldot_image_28.png,28,215.48071862147188,215.7322224291507,,,,,1,1,2024-10-28_18h31.36.691,visual,2024.1.5,120.43047788519208,
6_con_circum,0.25,6,11,8,206,17,,,,6_con_circum_image_30.png,30,215.83880741249303,216.08914647125638,,,,,1,1,2024-10-28_18h31.36.691,visual,2024.1.5,120.43047788519208,
2_con_circum,0.25,2,11,9,207,13,,,,2_con_circum_image_22.png,22,216.198322996567,216.44920634620357,,,,,1,1,2024-10-28_18h31.36.691,visual,2024.1.5,120.43047788519208,
3_con_singledot,0.25,3,11,10,208,2,,,,3_con_singledot_image_18.png,18,216.55589007954111,216.80668767916504,,,,,1,1,2024-10-28_18h31.36.691,visual,2024.1.5,120.43047788519208,
1_con_totaldot,0.25,1,11,11,209,6,,,,1_con_totaldot_image_2.png,2,216.9140021624742,217.16522055424284,,,,,1,1,2024-10-28_18h31.36.691,visual,2024.1.5,120.43047788519208,
4_con_totaldot,0.25,4,11,12,210,9,,,,4_con_totaldot_image_34.png,34,217.27191866254432,217.52269742919597,,,,,1,1,2024-10-28_18h31.36.691,visual,2024.1.5,120.43047788519208,
5_con_circum,0.25,5,11,13,211,16,,,,5_con_circum_image_19.png,19,217.63085095451677,217.88204430418554,,,,,1,1,2024-10-28_18h31.36.691,visual,2024.1.5,120.43047788519208,
1_con_circum,0.25,1,11,14,212,12,,,,1_con_circum_image_62.png,62,217.98861124652902,218.2397635542089,,,,,1,1,2024-10-28_18h31.36.691,visual,2024.1.5,120.43047788519208,
4_con_singledot,0.25,4,11,15,213,3,,,,4_con_singledot_image_55.png,55,218.34829887149388,218.59934372119605,,,,,1,1,2024-10-28_18h31.36.691,visual,2024.1.5,120.43047788519208,
6_con_singledot,0.25,6,11,16,214,5,,,,6_con_singledot_image_34.png,34,218.70588291257152,218.95591526224743,,,,,1,1,2024-10-28_18h31.36.691,visual,2024.1.5,120.43047788519208,
2_con_singledot,0.25,2,11,17,215,1,,,,2_con_singledot_image_57.png,57,219.0650929124793,219.3160791371716,2.wav,219.41583583306056,6.mp4,219.41583583306056,1,1,2024-10-28_18h31.36.691,visual,2024.1.5,120.43047788519208,
5_con_circum,0.25,5,12,0,216,16,,,,5_con_circum_image_62.png,62,221.24533722801132,221.49852126222103,,,,,1,1,2024-10-28_18h31.36.691,visual,2024.1.5,120.43047788519208,
4_con_circum,0.25,4,12,1,217,15,,,,4_con_circum_image_28.png,28,221.6056398294866,221.85614480418153,,,,,1,1,2024-10-28_18h31.36.691,visual,2024.1.5,120.43047788519208,
5_con_singledot,0.25,5,12,2,218,4,,,,5_con_singledot_image_56.png,56,221.96487395449074,222.216094846162,,,,,1,1,2024-10-28_18h31.36.691,visual,2024.1.5,120.43047788519208,
2_con_singledot,0.25,2,12,3,219,1,,,,2_con_singledot_image_22.png,22,222.32281116251832,222.5731227621669,,,,,1,1,2024-10-28_18h31.36.691,visual,2024.1.5,120.43047788519208,
3_con_circum,0.25,3,12,4,220,14,,,,3_con_circum_image_3.png,3,222.681654287572,222.93211897115688,,,,,1,1,2024-10-28_18h31.36.691,visual,2024.1.5,120.43047788519208,
3_con_totaldot,0.25,3,12,5,221,8,,,,3_con_totaldot_image_24.png,24,223.03868324654175,223.2898900961969,,,,,1,1,2024-10-28_18h31.36.691,visual,2024.1.5,120.43047788519208,
4_con_totaldot,0.25,4,12,6,222,9,,,,4_con_totaldot_image_13.png,13,223.39749349649063,223.64921830422244,,,,,1,1,2024-10-28_18h31.36.691,visual,2024.1.5,120.43047788519208,
6_con_totaldot,0.25,6,12,7,223,11,,,,6_con_totaldot_image_54.png,54,223.75576074649578,224.0060422212351,,,,,1,1,2024-10-28_18h31.36.691,visual,2024.1.5,120.43047788519208,
2_con_totaldot,0.25,2,12,8,224,7,,,,2_con_totaldot_image_46.png,46,224.11544728751758,224.365974762151,,,,,1,1,2024-10-28_18h31.36.691,visual,2024.1.5,120.43047788519208,
6_con_singledot,0.25,6,12,9,225,5,,,,6_con_singledot_image_67.png,67,224.47258466256315,224.72282809615135,,,,,1,1,2024-10-28_18h31.36.691,visual,2024.1.5,120.43047788519208,
1_con_totaldot,0.25,1,12,10,226,6,,,,1_con_totaldot_image_37.png,37,224.8310255375225,225.0828989711823,,,,,1,1,2024-10-28_18h31.36.691,visual,2024.1.5,120.43047788519208,
5_con_totaldot,0.25,5,12,11,227,10,,,,5_con_totaldot_image_47.png,47,225.19131074654868,225.44961967915296,,,,,1,1,2024-10-28_18h31.36.691,visual,2024.1.5,120.43047788519208,
4_con_singledot,0.25,4,12,12,228,3,,,,4_con_singledot_image_45.png,45,225.55772449653594,225.80679042919073,,,,,1,1,2024-10-28_18h31.36.691,visual,2024.1.5,120.43047788519208,
3_con_singledot,0.25,3,12,13,229,2,,,,3_con_singledot_image_59.png,59,225.91421674652955,226.16595842924434,,,,,1,1,2024-10-28_18h31.36.691,visual,2024.1.5,120.43047788519208,
1_con_circum,0.25,1,12,14,230,12,,,,1_con_circum_image_12.png,12,226.27257449652532,226.5228459711885,,,,,1,1,2024-10-28_18h31.36.691,visual,2024.1.5,120.43047788519208,
6_con_circum,0.25,6,12,15,231,17,,,,6_con_circum_image_34.png,34,226.63165112149434,226.88199863724876,,,,,1,1,2024-10-28_18h31.36.691,visual,2024.1.5,120.43047788519208,
1_con_singledot,0.25,1,12,16,232,0,,,,1_con_singledot_image_11.png,11,226.98886387150267,227.2402598042041,,,,,1,1,2024-10-28_18h31.36.691,visual,2024.1.5,120.43047788519208,
2_con_circum,0.25,2,12,17,233,13,,,,2_con_circum_image_40.png,40,227.348044787487,227.59883555423002,3.wav,227.69810999999754,15.mp4,227.69810999999754,1,1,2024-10-28_18h31.36.691,visual,2024.1.5,120.43047788519208,
2_con_singledot,0.25,2,13,0,234,1,,,,2_con_singledot_image_18.png,18,229.54071914399972,229.79876538717653,,,,,1,1,2024-10-28_18h31.36.691,visual,2024.1.5,120.43047788519208,
4_con_singledot,0.25,4,13,1,235,3,,,,4_con_singledot_image_13.png,13,229.90545774654018,230.15626034620217,,,,,1,1,2024-10-28_18h31.36.691,visual,2024.1.5,120.43047788519208,
5_con_circum,0.25,5,13,2,236,16,,,,5_con_circum_image_53.png,53,230.2646649545757,230.5156700122403,,,,,1,1,2024-10-28_18h31.36.691,visual,2024.1.5,120.43047788519208,
1_con_circum,0.25,1,13,3,237,12,,,,1_con_circum_image_69.png,69,230.62282632950226,230.87270888723432,,,,,1,1,2024-10-28_18h31.36.691,visual,2024.1.5,120.43047788519208,
1_con_singledot,0.25,1,13,4,238,0,,,,1_con_singledot_image_10.png,10,230.9816311215516,231.23209001219365,,,,,1,1,2024-10-28_18h31.36.691,visual,2024.1.5,120.43047788519208,
6_con_totaldot,0.25,6,13,5,239,11,,,,6_con_totaldot_image_25.png,25,231.3386675375048,231.59010272114537,,,,,1,1,2024-10-28_18h31.36.691,visual,2024.1.5,120.43047788519208,
3_con_totaldot,0.25,3,13,6,240,8,,,,3_con_totaldot_image_43.png,43,231.69906387147492,231.95005455417558,,,,,1,1,2024-10-28_18h31.36.691,visual,2024.1.5,120.43047788519208,
5_con_totaldot,0.25,5,13,7,241,10,,,,5_con_totaldot_image_46.png,46,232.0566243294859,232.30625801221467,,,,,1,1,2024-10-28_18h31.36.691,visual,2024.1.5,120.43047788519208,
1_con_totaldot,0.25,1,13,8,242,6,,,,1_con_totaldot_image_61.png,61,232.41527703749014,232.66586684624198,,,,,1,1,2024-10-28_18h31.36.691,visual,2024.1.5,120.43047788519208,
6_con_circum,0.25,6,13,9,243,17,,,,6_con_circum_image_56.png,56,232.77243216249624,233.02288151220418,,,,,1,1,2024-10-28_18h31.36.691,visual,2024.1.5,120.43047788519208,
2_con_circum,0.25,2,13,10,244,13,,,,2_con_circum_image_49.png,49,233.13166437153703,233.3829286372289,,,,,1,1,2024-10-28_18h31.36.691,visual,2024.1.5,120.43047788519208,
4_con_circum,0.25,4,13,11,245,15,,,,4_con_circum_image_44.png,44,233.48977216247002,233.74007351221516,,,,,1,1,2024-10-28_18h31.36.691,visual,2024.1.5,120.43047788519208,
6_con_singledot,0.25,6,13,12,246,5,,,,6_con_singledot_image_48.png,48,233.8492829545401,234.09894817918538,,,,,1,1,2024-10-28_18h31.36.691,visual,2024.1.5,120.43047788519208,
3_con_circum,0.25,3,13,13,247,14,,,,3_con_circum_image_47.png,47,234.20503062156493,234.4571427211864,,,,,1,1,2024-10-28_18h31.36.691,visual,2024.1.5,120.43047788519208,
3_con_singledot,0.25,3,13,14,248,2,,,,3_con_singledot_image_27.png,27,234.5648058295017,234.81539359621237,,,,,1,1,2024-10-28_18h31.36.691,visual,2024.1.5,120.43047788519208,
2_con_totaldot,0.25,2,13,15,249,7,,,,2_con_totaldot_image_2.png,2,234.92223391246515,235.17337505416944,,,,,1,1,2024-10-28_18h31.36.691,visual,2024.1.5,120.43047788519208,
5_con_singledot,0.25,5,13,16,250,4,,,,5_con_singledot_image_2.png,2,235.28180203756781,235.53260692921467,,,,,1,1,2024-10-28_18h31.36.691,visual,2024.1.5,120.43047788519208,
4_con_totaldot,0.25,4,13,17,251,9,,,,4_con_totaldot_image_20.png,20,235.63927670447154,235.89053842916618,1.wav,235.99181058304384,11.mp4,235.99181058304384,1,1,2024-10-28_18h31.36.691,visual,2024.1.5,120.43047788519208,
5_con_singledot,0.25,5,14,0,252,4,,,,5_con_singledot_image_21.png,21,237.82051189402117,238.07364809620194,,,,,1,1,2024-10-28_18h31.36.691,visual,2024.1.5,120.43047788519208,
5_con_circum,0.25,5,14,1,253,16,,,,5_con_circum_image_40.png,40,238.18163853751028,238.43215247117914,,,,,1,1,2024-10-28_18h31.36.691,visual,2024.1.5,120.43047788519208,
4_con_circum,0.25,4,14,2,254,15,,,,4_con_circum_image_2.png,2,238.53890145448966,238.79056892918888,,,,,1,1,2024-10-28_18h31.36.691,visual,2024.1.5,120.43047788519208,
3_con_totaldot,0.25,3,14,3,255,8,,,,3_con_totaldot_image_40.png,40,238.89775832947342,239.14960605420637,,,,,1,1,2024-10-28_18h31.36.691,visual,2024.1.5,120.43047788519208,
1_con_totaldot,0.25,1,14,4,256,6,,,,1_con_totaldot_image_46.png,46,239.25616795448585,239.50631038718856,,,,,1,1,2024-10-28_18h31.36.691,visual,2024.1.5,120.43047788519208,
2_con_totaldot,0.25,2,14,5,257,7,,,,2_con_totaldot_image_53.png,53,239.61527624651788,239.86621709624305,,,,,1,1,2024-10-28_18h31.36.691,visual,2024.1.5,120.43047788519208,
5_con_totaldot,0.25,5,14,6,258,10,,,,5_con_totaldot_image_31.png,31,239.97285187146625,240.22316684622783,,,,,1,1,2024-10-28_18h31.36.691,visual,2024.1.5,120.43047788519208,
6_con_totaldot,0.25,6,14,7,259,11,,,,6_con_totaldot_image_46.png,46,240.33127587155903,240.58266117915045,,,,,1,1,2024-10-28_18h31.36.691,visual,2024.1.5,120.43047788519208,
1_con_circum,0.25,1,14,8,260,12,,,,1_con_circum_image_35.png,35,240.6891954545397,240.93972076221834,,,,,1,1,2024-10-28_18h31.36.691,visual,2024.1.5,120.43047788519208,
1_con_singledot,0.25,1,14,9,261,0,,,,1_con_singledot_image_13.png,13,241.04787624657618,241.2990173042286,,,,,1,1,2024-10-28_18h31.36.691,visual,2024.1.5,120.43047788519208,
6_con_circum,0.25,6,14,10,262,17,,,,6_con_circum_image_45.png,45,241.4075268294662,241.6571978042135,,,,,1,1,2024-10-28_18h31.36.691,visual,2024.1.5,120.43047788519208,
3_con_circum,0.25,3,14,11,263,14,,,,3_con_circum_image_38.png,38,241.76457982948048,242.01610676224809,,,,,1,1,2024-10-28_18h31.36.691,visual,2024.1.5,120.43047788519208,
6_con_singledot,0.25,6,14,12,264,5,,,,6_con_singledot_image_44.png,44,242.12274262153076,242.37304205414839,,,,,1,1,2024-10-28_18h31.36.691,visual,2024.1.5,120.43047788519208,
3_con_singledot,0.25,3,14,13,265,2,,,,3_con_singledot_image_8.png,8,242.48231274653224,242.73290855416562,,,,,1,1,2024-10-28_18h31.36.691,visual,2024.1.5,120.43047788519208,
2_con_circum,0.25,2,14,14,266,13,,,,2_con_circum_image_70.png,70,242.83949549654497,243.09042176222428,,,,,1,1,2024-10-28_18h31.36.691,visual,2024.1.5,120.43047788519208,
4_con_totaldot,0.25,4,14,15,267,9,,,,4_con_totaldot_image_57.png,57,243.19888899656942,243.44897063719108,,,,,1,1,2024-10-28_18h31.36.691,visual,2024.1.5,120.43047788519208,
4_con_singledot,0.25,4,14,16,268,3,,,,4_con_singledot_image_64.png,64,243.5555349965114,243.80668488717637,,,,,1,1,2024-10-28_18h31.36.691,visual,2024.1.5,120.43047788519208,
2_con_singledot,0.25,2,14,17,269,1,,,,2_con_singledot_image_5.png,5,243.91498607951215,244.16557492923457,3.wav,244.26541420805734,16.mp4,244.26541420805734,1,1,2024-10-28_18h31.36.691,visual,2024.1.5,120.43047788519208,
1_con_totaldot,0.25,1,15,0,270,6,,,,1_con_totaldot_image_53.png,53,246.09713685298337,246.35203497114125,,,,,1,1,2024-10-28_18h31.36.691,visual,2024.1.5,120.43047788519208,
5_con_totaldot,0.25,5,15,1,271,10,,,,5_con_totaldot_image_70.png,70,246.45962937148286,246.71617022124119,,,,,1,1,2024-10-28_18h31.36.691,visual,2024.1.5,120.43047788519208,
4_con_totaldot,0.25,4,15,2,272,9,,,,4_con_totaldot_image_55.png,55,246.8228166214656,247.0737728461623,,,,,1,1,2024-10-28_18h31.36.691,visual,2024.1.5,120.43047788519208,
1_con_circum,0.25,1,15,3,273,12,,,,1_con_circum_image_51.png,51,247.18120012148282,247.43268876222427,,,,,1,1,2024-10-28_18h31.36.691,visual,2024.1.5,120.43047788519208,
2_con_totaldot,0.25,2,15,4,274,7,,,,2_con_totaldot_image_1.png,1,247.53880620452108,247.79064126221928,,,,,1,1,2024-10-28_18h31.36.691,visual,2024.1.5,120.43047788519208,
5_con_singledot,0.25,5,15,5,275,4,,,,5_con_singledot_image_23.png,23,247.8984820795711,248.14921738721895,,,,,1,1,2024-10-28_18h31.36.691,visual,2024.1.5,120.43047788519208,
1_con_singledot,0.25,1,15,6,276,0,,,,1_con_singledot_image_43.png,43,248.2558444964932,248.50644826216157,,,,,1,1,2024-10-28_18h31.36.691,visual,2024.1.5,120.43047788519208,
4_con_circum,0.25,4,15,7,277,15,,,,4_con_circum_image_45.png,45,248.6153186215786,248.86571917918045,,,,,1,1,2024-10-28_18h31.36.691,visual,2024.1.5,120.43047788519208,
3_con_totaldot,0.25,3,15,8,278,8,,,,3_con_totaldot_image_47.png,47,248.97229066253638,249.22298967922106,,,,,1,1,2024-10-28_18h31.36.691,visual,2024.1.5,120.43047788519208,
5_con_circum,0.25,5,15,9,279,16,,,,5_con_circum_image_18.png,18,249.33259907953905,249.58285788716748,,,,,1,1,2024-10-28_18h31.36.691,visual,2024.1.5,120.43047788519208,
3_con_singledot,0.25,3,15,10,280,2,,,,3_con_singledot_image_25.png,25,249.6895619965624,249.93984201215207,,,,,1,1,2024-10-28_18h31.36.691,visual,2024.1.5,120.43047788519208,
4_con_singledot,0.25,4,15,11,281,3,,,,4_con_singledot_image_19.png,19,250.04864312156568,250.29897488714195,,,,,1,1,2024-10-28_18h31.36.691,visual,2024.1.5,120.43047788519208,
6_con_totaldot,0.25,6,15,12,282,11,,,,6_con_totaldot_image_21.png,21,250.4058239964768,250.65731397122144,,,,,1,1,2024-10-28_18h31.36.691,visual,2024.1.5,120.43047788519208,
3_con_circum,0.25,3,15,13,283,14,,,,3_con_circum_image_42.png,42,250.7647075375542,251.0166625542566,,,,,1,1,2024-10-28_18h31.36.691,visual,2024.1.5,120.43047788519208,
2_con_singledot,0.25,2,15,14,284,1,,,,2_con_singledot_image_8.png,8,251.1231779965572,251.37414892916567,,,,,1,1,2024-10-28_18h31.36.691,visual,2024.1.5,120.43047788519208,
2_con_circum,0.25,2,15,15,285,13,,,,2_con_circum_image_53.png,53,251.4817527875537,251.73230701221618,,,,,1,1,2024-10-28_18h31.36.691,visual,2024.1.5,120.43047788519208,
6_con_singledot,0.25,6,15,16,286,5,,,,6_con_singledot_image_43.png,43,251.83879337152464,252.0899158872431,,,,,1,1,2024-10-28_18h31.36.691,visual,2024.1.5,120.43047788519208,
6_con_circum,0.25,6,15,17,287,17,,,,6_con_circum_image_67.png,67,252.19805020450147,252.4497762212064,4.wav,252.54937433300074,3.mp4,252.54937433300074,1,1,2024-10-28_18h31.36.691,visual,2024.1.5,120.43047788519208,
1_con_circum,0.25,1,16,0,288,12,,,,1_con_circum_image_41.png,41,254.39647135296835,254.64939826217014,,,,,1,1,2024-10-28_18h31.36.691,visual,2024.1.5,120.43047788519208,
5_con_circum,0.25,5,16,1,289,16,,,,5_con_circum_image_60.png,60,254.7556613714667,255.00669876220636,,,,,1,1,2024-10-28_18h31.36.691,visual,2024.1.5,120.43047788519208,
2_con_circum,0.25,2,16,2,290,13,,,,2_con_circum_image_26.png,26,255.11483345455488,255.3666711792117,,,,,1,1,2024-10-28_18h31.36.691,visual,2024.1.5,120.43047788519208,
2_con_totaldot,0.25,2,16,3,291,7,,,,2_con_totaldot_image_70.png,70,255.4732184125576,255.72327788723632,,,,,1,1,2024-10-28_18h31.36.691,visual,2024.1.5,120.43047788519208,
1_con_totaldot,0.25,1,16,4,292,6,,,,1_con_totaldot_image_4.png,4,255.83245891246477,256.0825758462539,,,,,1,1,2024-10-28_18h31.36.691,visual,2024.1.5,120.43047788519208,
6_con_singledot,0.25,6,16,5,293,5,,,,6_con_singledot_image_62.png,62,256.18911537150854,256.4395097622415,,,,,1,1,2024-10-28_18h31.36.691,visual,2024.1.5,120.43047788519208,
4_con_totaldot,0.25,4,16,6,294,9,,,,4_con_totaldot_image_33.png,33,256.5491530375555,256.79919359614144,,,,,1,1,2024-10-28_18h31.36.691,visual,2024.1.5,120.43047788519208,
3_con_singledot,0.25,3,16,7,295,2,,,,3_con_singledot_image_39.png,39,256.90579712153414,257.1566940541612,,,,,1,1,2024-10-28_18h31.36.691,visual,2024.1.5,120.43047788519208,
6_con_circum,0.25,6,16,8,296,17,,,,6_con_circum_image_22.png,22,257.265374037507,257.5256773461821,,,,,1,1,2024-10-28_18h31.36.691,visual,2024.1.5,120.43047788519208,
6_con_totaldot,0.25,6,16,9,297,11,,,,6_con_totaldot_image_36.png,36,257.65012403747534,257.90186372122264,,,,,1,1,2024-10-28_18h31.36.691,visual,2024.1.5,120.43047788519208,
5_con_totaldot,0.25,5,16,10,298,10,,,,5_con_totaldot_image_30.png,30,258.00922528754455,258.26578163718807,,,,,1,1,2024-10-28_18h31.36.691,visual,2024.1.5,120.43047788519208,
4_con_circum,0.25,4,16,11,299,15,,,,4_con_circum_image_63.png,63,258.37264003751335,258.6234589711763,,,,,1,1,2024-10-28_18h31.36.691,visual,2024.1.5,120.43047788519208,
3_con_totaldot,0.25,3,16,12,300,8,,,,3_con_totaldot_image_23.png,23,258.73137028755156,258.9833442211617,,,,,1,1,2024-10-28_18h31.36.691,visual,2024.1.5,120.43047788519208,
5_con_singledot,0.25,5,16,13,301,4,,,,5_con_singledot_image_6.png,6,259.0900402045343,259.3399743872229,,,,,1,1,2024-10-28_18h31.36.691,visual,2024.1.5,120.43047788519208,
2_con_singledot,0.25,2,16,14,302,1,,,,2_con_singledot_image_31.png,31,259.4484066215344,259.7000950961607,,,,,1,1,2024-10-28_18h31.36.691,visual,2024.1.5,120.43047788519208,
1_con_singledot,0.25,1,16,15,303,0,,,,1_con_singledot_image_31.png,31,259.80674712157344,260.05739213714844,,,,,1,1,2024-10-28_18h31.36.691,visual,2024.1.5,120.43047788519208,
3_con_circum,0.25,3,16,16,304,14,,,,3_con_circum_image_70.png,70,260.1652184965322,260.4162625541445,,,,,1,1,2024-10-28_18h31.36.691,visual,2024.1.5,120.43047788519208,
4_con_singledot,0.25,4,16,17,305,3,,,,4_con_singledot_image_43.png,43,260.52276437154507,260.7727588041686,3.wav,260.8754024170339,1.mp4,260.8754024170339,1,1,2024-10-28_18h31.36.691,visual,2024.1.5,120.43047788519208,
2_con_totaldot,0.25,2,17,0,306,7,,,,2_con_totaldot_image_60.png,60,262.7135939779226,262.9665908871917,,,,,1,1,2024-10-28_18h31.36.691,visual,2024.1.5,120.43047788519208,
6_con_singledot,0.25,6,17,1,307,5,,,,6_con_singledot_image_56.png,56,263.07335332951044,263.32420263721144,,,,,1,1,2024-10-28_18h31.36.691,visual,2024.1.5,120.43047788519208,
2_con_singledot,0.25,2,17,2,308,1,,,,2_con_singledot_image_42.png,42,263.43157378754114,263.6835202621529,,,,,1,1,2024-10-28_18h31.36.691,visual,2024.1.5,120.43047788519208,
3_con_circum,0.25,3,17,3,309,14,,,,3_con_circum_image_39.png,39,263.7900844965596,264.0401290122187,,,,,1,1,2024-10-28_18h31.36.691,visual,2024.1.5,120.43047788519208,
1_con_singledot,0.25,1,17,4,310,0,,,,1_con_singledot_image_5.png,5,264.1494794125436,264.3997430962278,,,,,1,1,2024-10-28_18h31.36.691,visual,2024.1.5,120.43047788519208,
6_con_totaldot,0.25,6,17,5,311,11,,,,6_con_totaldot_image_30.png,30,264.5062218715437,264.75680047124627,,,,,1,1,2024-10-28_18h31.36.691,visual,2024.1.5,120.43047788519208,
5_con_totaldot,0.25,5,17,6,312,10,,,,5_con_totaldot_image_51.png,51,264.8655362465186,265.11673384616154,,,,,1,1,2024-10-28_18h31.36.691,visual,2024.1.5,120.43047788519208,
1_con_circum,0.25,1,17,7,313,12,,,,1_con_circum_image_24.png,24,265.2235237465473,265.47415647122546,,,,,1,1,2024-10-28_18h31.36.691,visual,2024.1.5,120.43047788519208,
4_con_circum,0.25,4,17,8,314,15,,,,4_con_circum_image_24.png,24,265.58202245454305,265.83271142924207,,,,,1,1,2024-10-28_18h31.36.691,visual,2024.1.5,120.43047788519208,
5_con_circum,0.25,5,17,9,315,16,,,,5_con_circum_image_5.png,5,265.9387257875176,266.1905880122446,,,,,1,1,2024-10-28_18h31.36.691,visual,2024.1.5,120.43047788519208,
4_con_totaldot,0.25,4,17,10,316,9,,,,4_con_totaldot_image_26.png,26,266.29936466256623,266.5492819712032,,,,,1,1,2024-10-28_18h31.36.691,visual,2024.1.5,120.43047788519208,
3_con_totaldot,0.25,3,17,11,317,8,,,,3_con_totaldot_image_13.png,13,266.65577820451,266.9070023872424,,,,,1,1,2024-10-28_18h31.36.691,visual,2024.1.5,120.43047788519208,
3_con_singledot,0.25,3,17,12,318,2,,,,3_con_singledot_image_22.png,22,267.0155592464842,267.2659809291596,,,,,1,1,2024-10-28_18h31.36.691,visual,2024.1.5,120.43047788519208,
2_con_circum,0.25,2,17,13,319,13,,,,2_con_circum_image_67.png,67,267.3726305375574,267.6234810122056,,,,,1,1,2024-10-28_18h31.36.691,visual,2024.1.5,120.43047788519208,
1_con_totaldot,0.25,1,17,14,320,6,,,,1_con_totaldot_image_34.png,34,267.7321657465771,267.9835583041655,,,,,1,1,2024-10-28_18h31.36.691,visual,2024.1.5,120.43047788519208,
6_con_circum,0.25,6,17,15,321,17,,,,6_con_circum_image_26.png,26,268.0903646215564,268.3406058042543,,,,,1,1,2024-10-28_18h31.36.691,visual,2024.1.5,120.43047788519208,
4_con_singledot,0.25,4,17,16,322,3,,,,4_con_singledot_image_33.png,33,268.44902657957283,268.6994264711626,,,,,1,1,2024-10-28_18h31.36.691,visual,2024.1.5,120.43047788519208,
5_con_singledot,0.25,5,17,17,323,4,,,,5_con_singledot_image_43.png,43,268.80606620451437,269.0568925541826,4.wav,269.1587612919975,3.mp4,269.1587612919975,1,1,2024-10-28_18h31.36.691,visual,2024.1.5,120.43047788519208,
5_con_circum,0.25,5,18,0,324,16,,,,5_con_circum_image_54.png,54,270.9918833939126,271.2493786372012,,,,,1,1,2024-10-28_18h31.36.691,visual,2024.1.5,120.43047788519208,
1_con_singledot,0.25,1,18,1,325,0,,,,1_con_singledot_image_35.png,35,271.3561982045183,271.6068953462178,,,,,1,1,2024-10-28_18h31.36.691,visual,2024.1.5,120.43047788519208,
1_con_totaldot,0.25,1,18,2,326,6,,,,1_con_totaldot_image_29.png,29,271.7150391625008,271.9667019711575,,,,,1,1,2024-10-28_18h31.36.691,visual,2024.1.5,120.43047788519208,
5_con_totaldot,0.25,5,18,3,327,10,,,,5_con_totaldot_image_14.png,14,272.0732272045687,272.32453880414835,,,,,1,1,2024-10-28_18h31.36.691,visual,2024.1.5,120.43047788519208,
2_con_circum,0.25,2,18,4,328,13,,,,2_con_circum_image_14.png,14,272.4318102874793,272.6834740122082,,,,,1,1,2024-10-28_18h31.36.691,visual,2024.1.5,120.43047788519208,
3_con_circum,0.25,3,18,5,329,14,,,,3_con_circum_image_1.png,1,272.79000124656596,273.0410953872139,,,,,1,1,2024-10-28_18h31.36.691,visual,2024.1.5,120.43047788519208,
6_con_singledot,0.25,6,18,6,330,5,,,,6_con_singledot_image_12.png,12,273.1483594545396,273.3999163871864,,,,,1,1,2024-10-28_18h31.36.691,visual,2024.1.5,120.43047788519208,
4_con_singledot,0.25,4,18,7,331,3,,,,4_con_singledot_image_2.png,2,273.5066707875347,273.75692842914725,,,,,1,1,2024-10-28_18h31.36.691,visual,2024.1.5,120.43047788519208,
5_con_singledot,0.25,5,18,8,332,4,,,,5_con_singledot_image_45.png,45,273.8660451625008,274.1165088871727,,,,,1,1,2024-10-28_18h31.36.691,visual,2024.1.5,120.43047788519208,
3_con_singledot,0.25,3,18,9,333,2,,,,3_con_singledot_image_13.png,13,274.22326295457316,274.4738567212131,,,,,1,1,2024-10-28_18h31.36.691,visual,2024.1.5,120.43047788519208,
4_con_circum,0.25,4,18,10,334,15,,,,4_con_circum_image_36.png,36,274.58256395447535,274.83349497118036,,,,,1,1,2024-10-28_18h31.36.691,visual,2024.1.5,120.43047788519208,
6_con_totaldot,0.25,6,18,11,335,11,,,,6_con_totaldot_image_67.png,67,274.9402720795013,275.1902113042539,,,,,1,1,2024-10-28_18h31.36.691,visual,2024.1.5,120.43047788519208,
2_con_singledot,0.25,2,18,12,336,1,,,,2_con_singledot_image_9.png,9,275.29940270453227,275.5499698461732,,,,,1,1,2024-10-28_18h31.36.691,visual,2024.1.5,120.43047788519208,
4_con_totaldot,0.25,4,18,13,337,9,,,,4_con_totaldot_image_21.png,21,275.6566041624872,275.9077463041991,,,,,1,1,2024-10-28_18h31.36.691,visual,2024.1.5,120.43047788519208,
3_con_totaldot,0.25,3,18,14,338,8,,,,3_con_totaldot_image_25.png,25,276.01494099649136,276.26679442918396,,,,,1,1,2024-10-28_18h31.36.691,visual,2024.1.5,120.43047788519208,
6_con_circum,0.25,6,18,15,339,17,,,,6_con_circum_image_65.png,65,276.3734533715295,276.62345255424736,,,,,1,1,2024-10-28_18h31.36.691,visual,2024.1.5,120.43047788519208,
2_con_totaldot,0.25,2,18,16,340,7,,,,2_con_totaldot_image_33.png,33,276.73291203747505,276.98366047118327,,,,,1,1,2024-10-28_18h31.36.691,visual,2024.1.5,120.43047788519208,
1_con_circum,0.25,1,18,17,341,12,,,,1_con_circum_image_30.png,30,277.0897229124792,277.3401455121581,2.wav,277.44225062499754,2.mp4,277.44225062499754,1,1,2024-10-28_18h31.36.691,visual,2024.1.5,120.43047788519208,
3_con_singledot,0.25,3,19,0,342,2,,,,3_con_singledot_image_38.png,38,279.290487310919,279.55007276220715,,,,,1,1,2024-10-28_18h31.36.691,visual,2024.1.5,120.43047788519208,
2_con_circum,0.25,2,19,1,343,13,,,,2_con_circum_image_54.png,54,279.6665625374997,279.9166893462185,,,,,1,1,2024-10-28_18h31.36.691,visual,2024.1.5,120.43047788519208,
6_con_circum,0.25,6,19,2,344,17,,,,6_con_circum_image_59.png,59,280.02353124653456,280.27413480416874,,,,,1,1,2024-10-28_18h31.36.691,visual,2024.1.5,120.43047788519208,
4_con_totaldot,0.25,4,19,3,345,9,,,,4_con_totaldot_image_58.png,58,280.38214278751985,280.63303147119007,,,,,1,1,2024-10-28_18h31.36.691,visual,2024.1.5,120.43047788519208,
3_con_circum,0.25,3,19,4,346,14,,,,3_con_circum_image_9.png,9,280.7396251215367,280.99099576219453,,,,,1,1,2024-10-28_18h31.36.691,visual,2024.1.5,120.43047788519208,
5_con_circum,0.25,5,19,5,347,16,,,,5_con_circum_image_1.png,1,281.0989886625437,281.349598471215,,,,,1,1,2024-10-28_18h31.36.691,visual,2024.1.5,120.43047788519208,
4_con_circum,0.25,4,19,6,348,15,,,,4_con_circum_image_66.png,66,281.45623941249215,281.7068186372286,,,,,1,1,2024-10-28_18h31.36.691,visual,2024.1.5,120.43047788519208,
3_con_totaldot,0.25,3,19,7,349,8,,,,3_con_totaldot_image_37.png,37,281.8159327464644,282.0661503041862,,,,,1,1,2024-10-28_18h31.36.691,visual,2024.1.5,120.43047788519208,
2_con_totaldot,0.25,2,19,8,350,7,,,,2_con_totaldot_image_17.png,17,282.1727022045059,282.42365772116466,,,,,1,1,2024-10-28_18h31.36.691,visual,2024.1.5,120.43047788519208,
6_con_singledot,0.25,6,19,9,351,5,,,,6_con_singledot_image_8.png,8,282.5327152044745,282.7833856372396,,,,,1,1,2024-10-28_18h31.36.691,visual,2024.1.5,120.43047788519208,
4_con_singledot,0.25,4,19,10,352,3,,,,4_con_singledot_image_34.png,34,282.8893839545315,283.14087872116363,,,,,1,1,2024-10-28_18h31.36.691,visual,2024.1.5,120.43047788519208,
6_con_totaldot,0.25,6,19,11,353,11,,,,6_con_totaldot_image_12.png,12,283.2489526215475,283.49972755417696,,,,,1,1,2024-10-28_18h31.36.691,visual,2024.1.5,120.43047788519208,
1_con_totaldot,0.25,1,19,12,354,6,,,,1_con_totaldot_image_21.png,21,283.60634945456405,283.85800480414184,,,,,1,1,2024-10-28_18h31.36.691,visual,2024.1.5,120.43047788519208,
2_con_singledot,0.25,2,19,13,355,1,,,,2_con_singledot_image_19.png,19,283.96558516246733,284.2162193041528,,,,,1,1,2024-10-28_18h31.36.691,visual,2024.1.5,120.43047788519208,
1_con_singledot,0.25,1,19,14,356,0,,,,1_con_singledot_image_47.png,47,284.3226981214946,284.57376763715877,,,,,1,1,2024-10-28_18h31.36.691,visual,2024.1.5,120.43047788519208,
5_con_totaldot,0.25,5,19,15,357,10,,,,5_con_totaldot_image_64.png,64,284.682897079573,284.9329404712422,,,,,1,1,2024-10-28_18h31.36.691,visual,2024.1.5,120.43047788519208,
1_con_circum,0.25,1,19,16,358,12,,,,1_con_circum_image_4.png,4,285.0388469965663,285.28995913723486,,,,,1,1,2024-10-28_18h31.36.691,visual,2024.1.5,120.43047788519208,
5_con_singledot,0.25,5,19,17,359,4,,,,5_con_singledot_image_67.png,67,285.3994344545761,285.6497195122298,1.wav,285.7493770000292,2.mp4,285.7493770000292,1,1,2024-10-28_18h31.36.691,visual,2024.1.5,120.43047788519208,
4_con_circum,0.25,4,20,0,360,15,,,,4_con_circum_image_43.png,43,287.5944833529182,287.84972959619483,,,,,1,1,2024-10-28_18h31.36.691,visual,2024.1.5,120.43047788519208,
6_con_totaldot,0.25,6,20,1,361,11,,,,6_con_totaldot_image_17.png,17,287.956360371504,288.20700788721444,,,,,1,1,2024-10-28_18h31.36.691,visual,2024.1.5,120.43047788519208,
1_con_circum,0.25,1,20,2,362,12,,,,1_con_circum_image_68.png,68,288.31592703757343,288.56708534623033,,,,,1,1,2024-10-28_18h31.36.691,visual,2024.1.5,120.43047788519208,
1_con_singledot,0.25,1,20,3,363,0,,,,1_con_singledot_image_17.png,17,288.67368903751486,288.9240373041481,,,,,1,1,2024-10-28_18h31.36.691,visual,2024.1.5,120.43047788519208,
4_con_singledot,0.25,4,20,4,364,3,,,,4_con_singledot_image_4.png,4,289.0318912044866,289.28383538722994,,,,,1,1,2024-10-28_18h31.36.691,visual,2024.1.5,120.43047788519208,
2_con_singledot,0.25,2,20,5,365,1,,,,2_con_singledot_image_56.png,56,289.3904748295434,289.64103667917664,,,,,1,1,2024-10-28_18h31.36.691,visual,2024.1.5,120.43047788519208,
5_con_circum,0.25,5,20,6,366,16,,,,5_con_circum_image_55.png,55,289.7487281214679,290.00014380414507,,,,,1,1,2024-10-28_18h31.36.691,visual,2024.1.5,120.43047788519208,
4_con_totaldot,0.25,4,20,7,367,9,,,,4_con_totaldot_image_19.png,19,290.1060356625356,290.35779226224406,,,,,1,1,2024-10-28_18h31.36.691,visual,2024.1.5,120.43047788519208,
5_con_totaldot,0.25,5,20,8,368,10,,,,5_con_totaldot_image_28.png,28,290.46529616247864,290.7163714291761,,,,,1,1,2024-10-28_18h31.36.691,visual,2024.1.5,120.43047788519208,
2_con_circum,0.25,2,20,9,369,13,,,,2_con_circum_image_5.png,5,290.82288416249213,291.074236679147,,,,,1,1,2024-10-28_18h31.36.691,visual,2024.1.5,120.43047788519208,
1_con_totaldot,0.25,1,20,10,370,6,,,,1_con_totaldot_image_7.png,7,291.1823934965767,291.433537554252,,,,,1,1,2024-10-28_18h31.36.691,visual,2024.1.5,120.43047788519208,
3_con_circum,0.25,3,20,11,371,14,,,,3_con_circum_image_24.png,24,291.54002857948655,291.7908996792045,,,,,1,1,2024-10-28_18h31.36.691,visual,2024.1.5,120.43047788519208,
2_con_totaldot,0.25,2,20,12,372,7,,,,2_con_totaldot_image_36.png,36,291.8996690375032,292.15018126219513,,,,,1,1,2024-10-28_18h31.36.691,visual,2024.1.5,120.43047788519208,
6_con_circum,0.25,6,20,13,373,17,,,,6_con_circum_image_33.png,33,292.2572732874658,292.5072492622072,,,,,1,1,2024-10-28_18h31.36.691,visual,2024.1.5,120.43047788519208,
6_con_singledot,0.25,6,20,14,374,5,,,,6_con_singledot_image_22.png,22,292.61526016257704,292.8668805541471,,,,,1,1,2024-10-28_18h31.36.691,visual,2024.1.5,120.43047788519208,
5_con_singledot,0.25,5,20,15,375,4,,,,5_con_singledot_image_17.png,17,292.9734070375096,293.2238623871468,,,,,1,1,2024-10-28_18h31.36.691,visual,2024.1.5,120.43047788519208,
3_con_totaldot,0.25,3,20,16,376,8,,,,3_con_totaldot_image_5.png,5,293.3331499965396,293.5839186371537,,,,,1,1,2024-10-28_18h31.36.691,visual,2024.1.5,120.43047788519208,
3_con_singledot,0.25,3,20,17,377,2,,,,3_con_singledot_image_51.png,51,293.6905249545351,293.94135359618815,4.wav,294.0417885000352,1.mp4,294.0417885000352,1,1,2024-10-28_18h31.36.691,visual,2024.1.5,120.43047788519208,
2_con_singledot,0.25,2,21,0,378,1,,,,2_con_singledot_image_23.png,23,295.87912072795444,296.1335325961933,,,,,1,1,2024-10-28_18h31.36.691,visual,2024.1.5,120.43047788519208,
1_con_totaldot,0.25,1,21,1,379,6,,,,1_con_totaldot_image_66.png,66,296.2402332875179,296.49069659623785,,,,,1,1,2024-10-28_18h31.36.691,visual,2024.1.5,120.43047788519208,
6_con_singledot,0.25,6,21,2,380,5,,,,6_con_singledot_image_41.png,41,296.59864003753756,296.8505534711527,,,,,1,1,2024-10-28_18h31.36.691,visual,2024.1.5,120.43047788519208,
5_con_circum,0.25,5,21,3,381,16,,,,5_con_circum_image_66.png,66,296.95716545446777,297.2077270122478,,,,,1,1,2024-10-28_18h31.36.691,visual,2024.1.5,120.43047788519208,
1_con_circum,0.25,1,21,4,382,12,,,,1_con_circum_image_65.png,65,297.31577403757257,297.56728880424055,,,,,1,1,2024-10-28_18h31.36.691,visual,2024.1.5,120.43047788519208,
6_con_totaldot,0.25,6,21,5,383,11,,,,6_con_totaldot_image_32.png,32,297.67314362148755,297.92394209620545,,,,,1,1,2024-10-28_18h31.36.691,visual,2024.1.5,120.43047788519208,
4_con_singledot,0.25,4,21,6,384,3,,,,4_con_singledot_image_15.png,15,298.0325729544973,298.2829890122172,,,,,1,1,2024-10-28_18h31.36.691,visual,2024.1.5,120.43047788519208,
3_con_totaldot,0.25,3,21,7,385,8,,,,3_con_totaldot_image_3.png,3,298.38955887146295,298.6410530541558,,,,,1,1,2024-10-28_18h31.36.691,visual,2024.1.5,120.43047788519208,
1_con_singledot,0.25,1,21,8,386,0,,,,1_con_singledot_image_66.png,66,298.7487303295173,299.0002350541996,,,,,1,1,2024-10-28_18h31.36.691,visual,2024.1.5,120.43047788519208,
4_con_circum,0.25,4,21,9,387,15,,,,4_con_circum_image_54.png,54,299.1071839124896,299.35806622125676,,,,,1,1,2024-10-28_18h31.36.691,visual,2024.1.5,120.43047788519208,
2_con_circum,0.25,2,21,10,388,13,,,,2_con_circum_image_66.png,66,299.46532370448114,299.71652663722637,,,,,1,1,2024-10-28_18h31.36.691,visual,2024.1.5,120.43047788519208,
3_con_singledot,0.25,3,21,11,389,2,,,,3_con_singledot_image_52.png,52,299.823179912474,300.0745872621425,,,,,1,1,2024-10-28_18h31.36.691,visual,2024.1.5,120.43047788519208,
6_con_circum,0.25,6,21,12,390,17,,,,6_con_circum_image_2.png,2,300.1821975794854,300.43311592915563,,,,,1,1,2024-10-28_18h31.36.691,visual,2024.1.5,120.43047788519208,
3_con_circum,0.25,3,21,13,391,14,,,,3_con_circum_image_62.png,62,300.5396490374813,300.79060092919974,,,,,1,1,2024-10-28_18h31.36.691,visual,2024.1.5,120.43047788519208,
5_con_singledot,0.25,5,21,14,392,4,,,,5_con_singledot_image_3.png,3,300.9001194964629,301.1502727212152,,,,,1,1,2024-10-28_18h31.36.691,visual,2024.1.5,120.43047788519208,
4_con_totaldot,0.25,4,21,15,393,9,,,,4_con_totaldot_image_10.png,10,301.25688491256443,301.5073364712531,,,,,1,1,2024-10-28_18h31.36.691,visual,2024.1.5,120.43047788519208,
2_con_totaldot,0.25,2,21,16,394,7,,,,2_con_totaldot_image_13.png,13,301.61598032952753,301.8673625542084,,,,,1,1,2024-10-28_18h31.36.691,visual,2024.1.5,120.43047788519208,
5_con_totaldot,0.25,5,21,17,395,10,,,,5_con_totaldot_image_23.png,23,301.97326924647206,302.2239612621721,4.wav,302.3256410419708,4.mp4,302.3256410419708,1,1,2024-10-28_18h31.36.691,visual,2024.1.5,120.43047788519208,
4_con_totaldot,0.25,4,22,0,396,9,,,,4_con_totaldot_image_31.png,31,304.1496706439182,304.40062022118366,,,,,1,1,2024-10-28_18h31.36.691,visual,2024.1.5,120.43047788519208,
5_con_totaldot,0.25,5,22,1,397,10,,,,5_con_totaldot_image_45.png,45,304.5072676215321,304.7584962621564,,,,,1,1,2024-10-28_18h31.36.691,visual,2024.1.5,120.43047788519208,
3_con_circum,0.25,3,22,2,398,14,,,,3_con_circum_image_37.png,37,304.8659150375286,305.11701855415015,,,,,1,1,2024-10-28_18h31.36.691,visual,2024.1.5,120.43047788519208,
5_con_circum,0.25,5,22,3,399,16,,,,5_con_circum_image_4.png,4,305.2235324545298,305.4747183871456,,,,,1,1,2024-10-28_18h31.36.691,visual,2024.1.5,120.43047788519208,
1_con_circum,0.25,1,22,4,400,12,,,,1_con_circum_image_19.png,19,305.5821391215548,305.8340799291851,,,,,1,1,2024-10-28_18h31.36.691,visual,2024.1.5,120.43047788519208,
1_con_singledot,0.25,1,22,5,401,0,,,,1_con_singledot_image_56.png,56,305.94074232953136,306.19070838720074,,,,,1,1,2024-10-28_18h31.36.691,visual,2024.1.5,120.43047788519208,
4_con_circum,0.25,4,22,6,402,15,,,,4_con_circum_image_25.png,25,306.29988566257526,306.5524810961448,,,,,1,1,2024-10-28_18h31.36.691,visual,2024.1.5,120.43047788519208,
6_con_singledot,0.25,6,22,7,403,5,,,,6_con_singledot_image_35.png,35,306.6594484545756,306.91699972122444,,,,,1,1,2024-10-28_18h31.36.691,visual,2024.1.5,120.43047788519208,
4_con_singledot,0.25,4,22,8,404,3,,,,4_con_singledot_image_54.png,54,307.02386737156195,307.27353051225657,,,,,1,1,2024-10-28_18h31.36.691,visual,2024.1.5,120.43047788519208,
6_con_circum,0.25,6,22,9,405,17,,,,6_con_circum_image_37.png,37,307.38340520446656,307.6332711791853,,,,,1,1,2024-10-28_18h31.36.691,visual,2024.1.5,120.43047788519208,
2_con_singledot,0.25,2,22,10,406,1,,,,2_con_singledot_image_50.png,50,307.7409507045057,307.991159554245,,,,,1,1,2024-10-28_18h31.36.691,visual,2024.1.5,120.43047788519208,
3_con_totaldot,0.25,3,22,11,407,8,,,,3_con_totaldot_image_60.png,60,308.09882524651476,308.3498925542459,,,,,1,1,2024-10-28_18h31.36.691,visual,2024.1.5,120.43047788519208,
6_con_totaldot,0.25,6,22,12,408,11,,,,6_con_totaldot_image_41.png,41,308.45642849646975,308.7087698872434,,,,,1,1,2024-10-28_18h31.36.691,visual,2024.1.5,120.43047788519208,
2_con_circum,0.25,2,22,13,409,13,,,,2_con_circum_image_11.png,11,308.81598774653395,309.06706584619826,,,,,1,1,2024-10-28_18h31.36.691,visual,2024.1.5,120.43047788519208,
2_con_totaldot,0.25,2,22,14,410,7,,,,2_con_totaldot_image_29.png,29,309.17352357956116,309.4240803042427,,,,,1,1,2024-10-28_18h31.36.691,visual,2024.1.5,120.43047788519208,
3_con_singledot,0.25,3,22,15,411,2,,,,3_con_singledot_image_65.png,65,309.53262870451437,309.7835694712354,,,,,1,1,2024-10-28_18h31.36.691,visual,2024.1.5,120.43047788519208,
1_con_totaldot,0.25,1,22,16,412,6,,,,1_con_totaldot_image_23.png,23,309.8900078294799,310.14073101223914,,,,,1,1,2024-10-28_18h31.36.691,visual,2024.1.5,120.43047788519208,
5_con_singledot,0.25,5,22,17,413,4,,,,5_con_singledot_image_51.png,51,310.24900841254276,310.49992367918605,4.wav,310.5997293329565,3.mp4,310.5997293329565,1,1,2024-10-28_18h31.36.691,visual,2024.1.5,120.43047788519208,
1_con_circum,0.25,1,23,0,414,12,,,,1_con_circum_image_55.png,55,312.45324976900594,312.7083069711458,,,,,1,1,2024-10-28_18h31.36.691,visual,2024.1.5,120.43047788519208,
5_con_circum,0.25,5,23,1,415,16,,,,5_con_circum_image_29.png,29,312.81609799650033,313.0674378462369,,,,,1,1,2024-10-28_18h31.36.691,visual,2024.1.5,120.43047788519208,
4_con_totaldot,0.25,4,23,2,416,9,,,,4_con_totaldot_image_51.png,51,313.1741764544975,313.42412688725165,,,,,1,1,2024-10-28_18h31.36.691,visual,2024.1.5,120.43047788519208,
2_con_circum,0.25,2,23,3,417,13,,,,2_con_circum_image_46.png,46,313.5330696624704,313.7833281791769,,,,,1,1,2024-10-28_18h31.36.691,visual,2024.1.5,120.43047788519208,
6_con_singledot,0.25,6,23,4,418,5,,,,6_con_singledot_image_5.png,5,313.89102591255215,314.1413840962574,,,,,1,1,2024-10-28_18h31.36.691,visual,2024.1.5,120.43047788519208,
2_con_singledot,0.25,2,23,5,419,1,,,,2_con_singledot_image_63.png,63,314.2489772465313,314.5001025542384,,,,,1,1,2024-10-28_18h31.36.691,visual,2024.1.5,120.43047788519208,
3_con_totaldot,0.25,3,23,6,420,8,,,,3_con_totaldot_image_34.png,34,314.60674807948527,314.8575147212483,,,,,1,1,2024-10-28_18h31.36.691,visual,2024.1.5,120.43047788519208,
6_con_totaldot,0.25,6,23,7,421,11,,,,6_con_totaldot_image_27.png,27,314.9661738714902,315.2166241371539,,,,,1,1,2024-10-28_18h31.36.691,visual,2024.1.5,120.43047788519208,
6_con_circum,0.25,6,23,8,422,17,,,,6_con_circum_image_12.png,12,315.3233679965604,315.5748085122556,,,,,1,1,2024-10-28_18h31.36.691,visual,2024.1.5,120.43047788519208,
1_con_singledot,0.25,1,23,9,423,0,,,,1_con_singledot_image_58.png,58,315.68305599649904,315.93342259621716,,,,,1,1,2024-10-28_18h31.36.691,visual,2024.1.5,120.43047788519208,
5_con_totaldot,0.25,5,23,10,424,10,,,,5_con_totaldot_image_2.png,2,316.0399551215349,316.2908262212528,,,,,1,1,2024-10-28_18h31.36.691,visual,2024.1.5,120.43047788519208,
1_con_totaldot,0.25,1,23,11,425,6,,,,1_con_totaldot_image_55.png,55,316.3991476215422,316.65100759619384,,,,,1,1,2024-10-28_18h31.36.691,visual,2024.1.5,120.43047788519208,
2_con_totaldot,0.25,2,23,12,426,7,,,,2_con_totaldot_image_63.png,63,316.7646319545573,317.01670926217923,,,,,1,1,2024-10-28_18h31.36.691,visual,2024.1.5,120.43047788519208,
4_con_circum,0.25,4,23,13,427,15,,,,4_con_circum_image_46.png,46,317.12337249652484,317.3749378462322,,,,,1,1,2024-10-28_18h31.36.691,visual,2024.1.5,120.43047788519208,
4_con_singledot,0.25,4,23,14,428,3,,,,4_con_singledot_image_66.png,66,317.4822079544654,317.73441280415284,,,,,1,1,2024-10-28_18h31.36.691,visual,2024.1.5,120.43047788519208,
3_con_circum,0.25,3,23,15,429,14,,,,3_con_circum_image_2.png,2,317.84215782950633,318.10016130425504,,,,,1,1,2024-10-28_18h31.36.691,visual,2024.1.5,120.43047788519208,
5_con_singledot,0.25,5,23,16,430,4,,,,5_con_singledot_image_10.png,10,318.2067812465364,318.4575644711964,,,,,1,1,2024-10-28_18h31.36.691,visual,2024.1.5,120.43047788519208,
3_con_singledot,0.25,3,23,17,431,2,,,,3_con_singledot_image_6.png,6,318.566940079513,318.8172869711649,1.wav,318.9168985419674,1.mp4,318.9168985419674,1,1,2024-10-28_18h31.36.691,visual,2024.1.5,120.43047788519208,
5_con_singledot,0.25,5,24,0,432,4,,,,5_con_singledot_image_19.png,19,320.7465963529656,321.00097738720945,,,,,1,1,2024-10-28_18h31.36.691,visual,2024.1.5,120.43047788519208,
3_con_totaldot,0.25,3,24,1,433,8,,,,3_con_totaldot_image_55.png,55,321.1074792044936,321.3586299291579,,,,,1,1,2024-10-28_18h31.36.691,visual,2024.1.5,120.43047788519208,
2_con_circum,0.25,2,24,2,434,13,,,,2_con_circum_image_23.png,23,321.46574841248804,321.7167610122357,,,,,1,1,2024-10-28_18h31.36.691,visual,2024.1.5,120.43047788519208,
4_con_singledot,0.25,4,24,3,435,3,,,,4_con_singledot_image_61.png,61,321.8227612045128,322.07412988718136,,,,,1,1,2024-10-28_18h31.36.691,visual,2024.1.5,120.43047788519208,
4_con_totaldot,0.25,4,24,4,436,9,,,,4_con_totaldot_image_22.png,22,322.1823234125739,322.43346738724506,,,,,1,1,2024-10-28_18h31.36.691,visual,2024.1.5,120.43047788519208,
6_con_totaldot,0.25,6,24,5,437,11,,,,6_con_totaldot_image_31.png,31,322.5401690374827,322.79144422118554,,,,,1,1,2024-10-28_18h31.36.691,visual,2024.1.5,120.43047788519208,
2_con_totaldot,0.25,2,24,6,438,7,,,,2_con_totaldot_image_6.png,6,322.8990199125372,323.15016959621573,,,,,1,1,2024-10-28_18h31.36.691,visual,2024.1.5,120.43047788519208,
1_con_singledot,0.25,1,24,7,439,0,,,,1_con_singledot_image_39.png,39,323.25603516255507,323.5091911792057,,,,,1,1,2024-10-28_18h31.36.691,visual,2024.1.5,120.43047788519208,
3_con_singledot,0.25,3,24,8,440,2,,,,3_con_singledot_image_50.png,50,323.61645320449026,323.8672346371692,,,,,1,1,2024-10-28_18h31.36.691,visual,2024.1.5,120.43047788519208,
1_con_totaldot,0.25,1,24,9,441,6,,,,1_con_totaldot_image_10.png,10,323.97370282951744,324.22414655415344,,,,,1,1,2024-10-28_18h31.36.691,visual,2024.1.5,120.43047788519208,
2_con_singledot,0.25,2,24,10,442,1,,,,2_con_singledot_image_54.png,54,324.3334677875508,324.5843807622092,,,,,1,1,2024-10-28_18h31.36.691,visual,2024.1.5,120.43047788519208,
6_con_circum,0.25,6,24,11,443,17,,,,6_con_circum_image_49.png,49,324.6908810794819,324.9418444711715,,,,,1,1,2024-10-28_18h31.36.691,visual,2024.1.5,120.43047788519208,
6_con_singledot,0.25,6,24,12,444,5,,,,6_con_singledot_image_30.png,30,325.0496392464964,325.3001707622549,,,,,1,1,2024-10-28_18h31.36.691,visual,2024.1.5,120.43047788519208,
1_con_circum,0.25,1,24,13,445,12,,,,1_con_circum_image_63.png,63,325.40691195447,325.6578465542058,,,,,1,1,2024-10-28_18h31.36.691,visual,2024.1.5,120.43047788519208,
5_con_totaldot,0.25,5,24,14,446,10,,,,5_con_totaldot_image_60.png,60,325.7664299124852,326.0169677211903,,,,,1,1,2024-10-28_18h31.36.691,visual,2024.1.5,120.43047788519208,
4_con_circum,0.25,4,24,15,447,15,,,,4_con_circum_image_39.png,39,326.12365887146444,326.3740376791917,,,,,1,1,2024-10-28_18h31.36.691,visual,2024.1.5,120.43047788519208,
3_con_circum,0.25,3,24,16,448,14,,,,3_con_circum_image_54.png,54,326.4831288294634,326.733906512172,,,,,1,1,2024-10-28_18h31.36.691,visual,2024.1.5,120.43047788519208,
5_con_circum,0.25,5,24,17,449,16,,,,5_con_circum_image_57.png,57,326.8403729545651,327.09147338722835,3.wav,327.19296429201495,16.mp4,327.19296429201495,1,1,2024-10-28_18h31.36.691,visual,2024.1.5,120.43047788519208,
5_con_totaldot,0.25,5,25,0,450,10,,,,5_con_totaldot_image_62.png,62,329.0188361439621,329.27481730424336,,,,,1,1,2024-10-28_18h31.36.691,visual,2024.1.5,120.43047788519208,
1_con_totaldot,0.25,1,25,1,451,6,,,,1_con_totaldot_image_14.png,14,329.3829620375298,329.63407063719353,,,,,1,1,2024-10-28_18h31.36.691,visual,2024.1.5,120.43047788519208,
3_con_singledot,0.25,3,25,2,452,2,,,,3_con_singledot_image_33.png,33,329.7408122044988,329.9916288871551,,,,,1,1,2024-10-28_18h31.36.691,visual,2024.1.5,120.43047788519208,
1_con_singledot,0.25,1,25,3,453,0,,,,1_con_singledot_image_27.png,27,330.099806954572,330.3508093041834,,,,,1,1,2024-10-28_18h31.36.691,visual,2024.1.5,120.43047788519208,
4_con_circum,0.25,4,25,4,454,15,,,,4_con_circum_image_37.png,37,330.45747012151406,330.70913680423985,,,,,1,1,2024-10-28_18h31.36.691,visual,2024.1.5,120.43047788519208,
4_con_totaldot,0.25,4,25,5,455,9,,,,4_con_totaldot_image_70.png,70,330.81751187152696,331.0675965962233,,,,,1,1,2024-10-28_18h31.36.691,visual,2024.1.5,120.43047788519208,
2_con_circum,0.25,2,25,6,456,13,,,,2_con_circum_image_3.png,3,331.1741638294887,331.42525284623264,,,,,1,1,2024-10-28_18h31.36.691,visual,2024.1.5,120.43047788519208,
6_con_totaldot,0.25,6,25,7,457,11,,,,6_con_totaldot_image_2.png,2,331.53293853749057,331.78358405423353,,,,,1,1,2024-10-28_18h31.36.691,visual,2024.1.5,120.43047788519208,
3_con_totaldot,0.25,3,25,8,458,8,,,,3_con_totaldot_image_4.png,4,331.89014170453885,332.142024471215,,,,,1,1,2024-10-28_18h31.36.691,visual,2024.1.5,120.43047788519208,
4_con_singledot,0.25,4,25,9,459,3,,,,4_con_singledot_image_14.png,14,332.24924057950267,332.5003639292205,,,,,1,1,2024-10-28_18h31.36.691,visual,2024.1.5,120.43047788519208,
5_con_circum,0.25,5,25,10,460,16,,,,5_con_circum_image_63.png,63,332.60692162155175,332.8579025542364,,,,,1,1,2024-10-28_18h31.36.691,visual,2024.1.5,120.43047788519208,
1_con_circum,0.25,1,25,11,461,12,,,,1_con_circum_image_50.png,50,332.9666501215659,333.21689901223874,,,,,1,1,2024-10-28_18h31.36.691,visual,2024.1.5,120.43047788519208,
2_con_singledot,0.25,2,25,12,462,1,,,,2_con_singledot_image_53.png,53,333.3234278715216,333.5750908871647,,,,,1,1,2024-10-28_18h31.36.691,visual,2024.1.5,120.43047788519208,
2_con_totaldot,0.25,2,25,13,463,7,,,,2_con_totaldot_image_22.png,22,333.6835238715401,333.9336648042314,,,,,1,1,2024-10-28_18h31.36.691,visual,2024.1.5,120.43047788519208,
3_con_circum,0.25,3,25,14,464,14,,,,3_con_circum_image_52.png,52,334.0402074545389,334.2912237212528,,,,,1,1,2024-10-28_18h31.36.691,visual,2024.1.5,120.43047788519208,
6_con_singledot,0.25,6,25,15,465,5,,,,6_con_singledot_image_24.png,24,334.3998920375714,334.65031001218597,,,,,1,1,2024-10-28_18h31.36.691,visual,2024.1.5,120.43047788519208,
6_con_circum,0.25,6,25,16,466,17,,,,6_con_circum_image_40.png,40,334.75688153756784,335.007671512221,,,,,1,1,2024-10-28_18h31.36.691,visual,2024.1.5,120.43047788519208,
5_con_singledot,0.25,5,25,17,467,4,,,,5_con_singledot_image_14.png,14,335.11668153754437,335.3674010541523,3.wav,335.46635750005953,15.mp4,335.46635750005953,1,1,2024-10-28_18h31.36.691,visual,2024.1.5,120.43047788519208,
2_con_totaldot,0.25,2,26,0,468,7,,,,2_con_totaldot_image_54.png,54,337.2979607689893,337.55081659615973,,,,,1,1,2024-10-28_18h31.36.691,visual,2024.1.5,120.43047788519208,
2_con_circum,0.25,2,26,1,469,13,,,,2_con_circum_image_9.png,9,337.6575018295087,337.90881480418614,,,,,1,1,2024-10-28_18h31.36.691,visual,2024.1.5,120.43047788519208,
6_con_singledot,0.25,6,26,2,470,5,,,,6_con_singledot_image_60.png,60,338.0164647044847,338.2678557211999,,,,,1,1,2024-10-28_18h31.36.691,visual,2024.1.5,120.43047788519208,
6_con_totaldot,0.25,6,26,3,471,11,,,,6_con_totaldot_image_62.png,62,338.37439603749664,338.6244563461747,,,,,1,1,2024-10-28_18h31.36.691,visual,2024.1.5,120.43047788519208,
1_con_circum,0.25,1,26,4,472,12,,,,1_con_circum_image_59.png,59,338.73315262149555,338.98412501220594,,,,,1,1,2024-10-28_18h31.36.691,visual,2024.1.5,120.43047788519208,
4_con_circum,0.25,4,26,5,473,15,,,,4_con_circum_image_18.png,18,339.0906730375253,339.34119597114625,,,,,1,1,2024-10-28_18h31.36.691,visual,2024.1.5,120.43047788519208,
3_con_circum,0.25,3,26,6,474,14,,,,3_con_circum_image_33.png,33,339.4497194544645,339.70055892914536,,,,,1,1,2024-10-28_18h31.36.691,visual,2024.1.5,120.43047788519208,
3_con_singledot,0.25,3,26,7,475,2,,,,3_con_singledot_image_16.png,16,339.8071164125111,340.0580330542522,,,,,1,1,2024-10-28_18h31.36.691,visual,2024.1.5,120.43047788519208,
3_con_totaldot,0.25,3,26,8,476,8,,,,3_con_totaldot_image_16.png,16,340.1658857875271,340.41778176222,,,,,1,1,2024-10-28_18h31.36.691,visual,2024.1.5,120.43047788519208,
2_con_singledot,0.25,2,26,9,477,1,,,,2_con_singledot_image_45.png,45,340.5244249965297,340.7745513872011,,,,,1,1,2024-10-28_18h31.36.691,visual,2024.1.5,120.43047788519208,
4_con_singledot,0.25,4,26,10,478,3,,,,4_con_singledot_image_40.png,40,340.8831342044985,341.13420851216654,,,,,1,1,2024-10-28_18h31.36.691,visual,2024.1.5,120.43047788519208,
1_con_totaldot,0.25,1,26,11,479,6,,,,1_con_totaldot_image_48.png,48,341.24076666247566,341.4921043041628,,,,,1,1,2024-10-28_18h31.36.691,visual,2024.1.5,120.43047788519208,
4_con_totaldot,0.25,4,26,12,480,9,,,,4_con_totaldot_image_12.png,12,341.5999095375417,341.85091784622057,,,,,1,1,2024-10-28_18h31.36.691,visual,2024.1.5,120.43047788519208,
5_con_circum,0.25,5,26,13,481,16,,,,5_con_circum_image_44.png,44,341.9574191625696,342.2083482211689,,,,,1,1,2024-10-28_18h31.36.691,visual,2024.1.5,120.43047788519208,
6_con_circum,0.25,6,26,14,482,17,,,,6_con_circum_image_35.png,35,342.3163859964814,342.56762426220814,,,,,1,1,2024-10-28_18h31.36.691,visual,2024.1.5,120.43047788519208,
5_con_singledot,0.25,5,26,15,483,4,,,,5_con_singledot_image_46.png,46,342.6760550795123,342.925138096232,,,,,1,1,2024-10-28_18h31.36.691,visual,2024.1.5,120.43047788519208,
5_con_totaldot,0.25,5,26,16,484,10,,,,5_con_totaldot_image_61.png,61,343.03277307953687,343.2842403461924,,,,,1,1,2024-10-28_18h31.36.691,visual,2024.1.5,120.43047788519208,
1_con_singledot,0.25,1,26,17,485,0,,,,1_con_singledot_image_34.png,34,343.39081795450767,343.6412561371923,4.wav,343.74356400000397,2.mp4,343.74356400000397,1,1,2024-10-28_18h31.36.691,visual,2024.1.5,120.43047788519208,
6_con_totaldot,0.25,6,27,0,486,11,,,,6_con_totaldot_image_53.png,53,345.59029260296376,345.8413505961886,,,,,1,1,2024-10-28_18h31.36.691,visual,2024.1.5,120.43047788519208,
6_con_circum,0.25,6,27,1,487,17,,,,6_con_circum_image_50.png,50,345.94978549652734,346.2011684711557,,,,,1,1,2024-10-28_18h31.36.691,visual,2024.1.5,120.43047788519208,
3_con_circum,0.25,3,27,2,488,14,,,,3_con_circum_image_22.png,22,346.30776491255966,346.55875347114636,,,,,1,1,2024-10-28_18h31.36.691,visual,2024.1.5,120.43047788519208,
4_con_singledot,0.25,4,27,3,489,3,,,,4_con_singledot_image_10.png,10,346.66627287149896,346.917939179251,,,,,1,1,2024-10-28_18h31.36.691,visual,2024.1.5,120.43047788519208,
4_con_totaldot,0.25,4,27,4,490,9,,,,4_con_totaldot_image_52.png,52,347.02441716247705,347.27469997121955,,,,,1,1,2024-10-28_18h31.36.691,visual,2024.1.5,120.43047788519208,
1_con_circum,0.25,1,27,5,491,12,,,,1_con_circum_image_61.png,61,347.3829409544822,347.63463317919525,,,,,1,1,2024-10-28_18h31.36.691,visual,2024.1.5,120.43047788519208,
4_con_circum,0.25,4,27,6,492,15,,,,4_con_circum_image_4.png,4,347.74293974654285,348.0005261792336,,,,,1,1,2024-10-28_18h31.36.691,visual,2024.1.5,120.43047788519208,
5_con_totaldot,0.25,5,27,7,493,10,,,,5_con_totaldot_image_29.png,29,348.107236454566,348.35795380421916,,,,,1,1,2024-10-28_18h31.36.691,visual,2024.1.5,120.43047788519208,
1_con_totaldot,0.25,1,27,8,494,6,,,,1_con_totaldot_image_57.png,57,348.4665907044662,348.71757738725285,,,,,1,1,2024-10-28_18h31.36.691,visual,2024.1.5,120.43047788519208,
1_con_singledot,0.25,1,27,9,495,0,,,,1_con_singledot_image_49.png,49,348.8240598715609,349.07398909623737,,,,,1,1,2024-10-28_18h31.36.691,visual,2024.1.5,120.43047788519208,
2_con_singledot,0.25,2,27,10,496,1,,,,2_con_singledot_image_43.png,43,349.1838907874888,349.434080137196,,,,,1,1,2024-10-28_18h31.36.691,visual,2024.1.5,120.43047788519208,
3_con_singledot,0.25,3,27,11,497,2,,,,3_con_singledot_image_69.png,69,349.540834954544,349.7921738041565,,,,,1,1,2024-10-28_18h31.36.691,visual,2024.1.5,120.43047788519208,
2_con_totaldot,0.25,2,27,12,498,7,,,,2_con_totaldot_image_32.png,32,349.8993352874648,350.15100909620526,,,,,1,1,2024-10-28_18h31.36.691,visual,2024.1.5,120.43047788519208,
6_con_singledot,0.25,6,27,13,499,5,,,,6_con_singledot_image_68.png,68,350.2575259125559,350.50833447116895,,,,,1,1,2024-10-28_18h31.36.691,visual,2024.1.5,120.43047788519208,
5_con_circum,0.25,5,27,14,500,16,,,,5_con_circum_image_37.png,37,350.61698307953776,350.86767772121823,,,,,1,1,2024-10-28_18h31.36.691,visual,2024.1.5,120.43047788519208,
2_con_circum,0.25,2,27,15,501,13,,,,2_con_circum_image_47.png,47,350.97420062155,351.2256018461427,,,,,1,1,2024-10-28_18h31.36.691,visual,2024.1.5,120.43047788519208,
5_con_singledot,0.25,5,27,16,502,4,,,,5_con_singledot_image_38.png,38,351.33290512156674,351.5846250121482,,,,,1,1,2024-10-28_18h31.36.691,visual,2024.1.5,120.43047788519208,
3_con_totaldot,0.25,3,27,17,503,8,,,,3_con_totaldot_image_42.png,42,351.6912382875569,351.94134788718077,2.wav,352.04321120795794,2.mp4,352.04321120795794,1,1,2024-10-28_18h31.36.691,visual,2024.1.5,120.43047788519208,
4_con_singledot,0.25,4,28,0,504,3,,,,4_con_singledot_image_9.png,9,353.8866066029994,354.1405962212244,,,,,1,1,2024-10-28_18h31.36.691,visual,2024.1.5,120.43047788519208,
2_con_circum,0.25,2,28,1,505,13,,,,2_con_circum_image_2.png,2,354.24936528755353,354.50061388723555,,,,,1,1,2024-10-28_18h31.36.691,visual,2024.1.5,120.43047788519208,
6_con_totaldot,0.25,6,28,2,506,11,,,,6_con_totaldot_image_13.png,13,354.60717582954095,354.85793005421294,,,,,1,1,2024-10-28_18h31.36.691,visual,2024.1.5,120.43047788519208,
1_con_singledot,0.25,1,28,3,507,0,,,,1_con_singledot_image_44.png,44,354.9662488295697,355.21777059617455,,,,,1,1,2024-10-28_18h31.36.691,visual,2024.1.5,120.43047788519208,
5_con_totaldot,0.25,5,28,4,508,10,,,,5_con_totaldot_image_68.png,68,355.32446028753185,355.57481792920737,,,,,1,1,2024-10-28_18h31.36.691,visual,2024.1.5,120.43047788519208,
2_con_singledot,0.25,2,28,5,509,1,,,,2_con_singledot_image_15.png,15,355.6832514125388,355.93392709621696,,,,,1,1,2024-10-28_18h31.36.691,visual,2024.1.5,120.43047788519208,
1_con_totaldot,0.25,1,28,6,510,6,,,,1_con_totaldot_image_62.png,62,356.0404691214906,356.2914260542253,,,,,1,1,2024-10-28_18h31.36.691,visual,2024.1.5,120.43047788519208,
1_con_circum,0.25,1,28,7,511,12,,,,1_con_circum_image_64.png,64,356.40070903750603,356.6507037212374,,,,,1,1,2024-10-28_18h31.36.691,visual,2024.1.5,120.43047788519208,
6_con_singledot,0.25,6,28,8,512,5,,,,6_con_singledot_image_69.png,69,356.7572836625157,357.00994517924266,,,,,1,1,2024-10-28_18h31.36.691,visual,2024.1.5,120.43047788519208,
5_con_circum,0.25,5,28,9,513,16,,,,5_con_circum_image_34.png,34,357.11791803753005,357.36903572119775,,,,,1,1,2024-10-28_18h31.36.691,visual,2024.1.5,120.43047788519208,
2_con_totaldot,0.25,2,28,10,514,7,,,,2_con_totaldot_image_39.png,39,357.4768201214727,357.7347723042127,,,,,1,1,2024-10-28_18h31.36.691,visual,2024.1.5,120.43047788519208,
5_con_singledot,0.25,5,28,11,515,4,,,,5_con_singledot_image_4.png,4,357.8414549545385,358.09161797121635,,,,,1,1,2024-10-28_18h31.36.691,visual,2024.1.5,120.43047788519208,
6_con_circum,0.25,6,28,12,516,17,,,,6_con_circum_image_42.png,42,358.2002074545715,358.4514719292289,,,,,1,1,2024-10-28_18h31.36.691,visual,2024.1.5,120.43047788519208,
3_con_circum,0.25,3,28,13,517,14,,,,3_con_circum_image_14.png,14,358.5579826625297,358.80850005419927,,,,,1,1,2024-10-28_18h31.36.691,visual,2024.1.5,120.43047788519208,
4_con_circum,0.25,4,28,14,518,15,,,,4_con_circum_image_11.png,11,358.9166644545738,359.1681953461608,,,,,1,1,2024-10-28_18h31.36.691,visual,2024.1.5,120.43047788519208,
3_con_totaldot,0.25,3,28,15,519,8,,,,3_con_totaldot_image_63.png,63,359.27466691257433,359.52484001221603,,,,,1,1,2024-10-28_18h31.36.691,visual,2024.1.5,120.43047788519208,
3_con_singledot,0.25,3,28,16,520,2,,,,3_con_singledot_image_26.png,26,359.63426537155175,359.8839029291645,,,,,1,1,2024-10-28_18h31.36.691,visual,2024.1.5,120.43047788519208,
4_con_totaldot,0.25,4,28,17,521,9,,,,4_con_totaldot_image_15.png,15,359.99050616247115,360.2414172211662,3.wav,360.3431162079796,16.mp4,360.3431162079796,1,1,2024-10-28_18h31.36.691,visual,2024.1.5,120.43047788519208,
4_con_singledot,0.25,4,29,0,522,3,,,,4_con_singledot_image_38.png,38,362.16797160294374,362.4178736792179,,,,,1,1,2024-10-28_18h31.36.691,visual,2024.1.5,120.43047788519208,
2_con_singledot,0.25,2,29,1,523,1,,,,2_con_singledot_image_6.png,6,362.5249013715191,362.77504272121007,,,,,1,1,2024-10-28_18h31.36.691,visual,2024.1.5,120.43047788519208,
5_con_singledot,0.25,5,29,2,524,4,,,,5_con_singledot_image_55.png,55,362.88296191249975,363.1339830121957,,,,,1,1,2024-10-28_18h31.36.691,visual,2024.1.5,120.43047788519208,
3_con_singledot,0.25,3,29,3,525,2,,,,3_con_singledot_image_64.png,64,363.2406855375273,363.4918689711718,,,,,1,1,2024-10-28_18h31.36.691,visual,2024.1.5,120.43047788519208,
1_con_singledot,0.25,1,29,4,526,0,,,,1_con_singledot_image_61.png,61,363.599584287568,363.85073163723575,,,,,1,1,2024-10-28_18h31.36.691,visual,2024.1.5,120.43047788519208,
6_con_singledot,0.25,6,29,5,527,5,,,,6_con_singledot_image_31.png,31,363.9575140794739,364.20872488725,,,,,1,1,2024-10-28_18h31.36.691,visual,2024.1.5,120.43047788519208,
4_con_totaldot,0.25,4,29,6,528,9,,,,4_con_totaldot_image_18.png,18,364.31645982952324,364.56777897118593,,,,,1,1,2024-10-28_18h31.36.691,visual,2024.1.5,120.43047788519208,
6_con_totaldot,0.25,6,29,7,529,11,,,,6_con_totaldot_image_65.png,65,364.6743035795633,364.92524401217236,,,,,1,1,2024-10-28_18h31.36.691,visual,2024.1.5,120.43047788519208,
1_con_totaldot,0.25,1,29,8,530,6,,,,1_con_totaldot_image_5.png,5,365.03333966254723,365.28448134616485,,,,,1,1,2024-10-28_18h31.36.691,visual,2024.1.5,120.43047788519208,
1_con_circum,0.25,1,29,9,531,12,,,,1_con_circum_image_21.png,21,365.3903067875188,365.6420184291434,,,,,1,1,2024-10-28_18h31.36.691,visual,2024.1.5,120.43047788519208,
2_con_circum,0.25,2,29,10,532,13,,,,2_con_circum_image_36.png,36,365.74985674647615,366.0007481791778,,,,,1,1,2024-10-28_18h31.36.691,visual,2024.1.5,120.43047788519208,
5_con_circum,0.25,5,29,11,533,16,,,,5_con_circum_image_32.png,32,366.1073639124632,366.3586210961454,,,,,1,1,2024-10-28_18h31.36.691,visual,2024.1.5,120.43047788519208,
3_con_totaldot,0.25,3,29,12,534,8,,,,3_con_totaldot_image_12.png,12,366.4667600795627,366.71854617914653,,,,,1,1,2024-10-28_18h31.36.691,visual,2024.1.5,120.43047788519208,
5_con_totaldot,0.25,5,29,13,535,10,,,,5_con_totaldot_image_59.png,59,366.825171829504,367.07487180423925,,,,,1,1,2024-10-28_18h31.36.691,visual,2024.1.5,120.43047788519208,
3_con_circum,0.25,3,29,14,536,14,,,,3_con_circum_image_18.png,18,367.18288799650037,367.43420547121207,,,,,1,1,2024-10-28_18h31.36.691,visual,2024.1.5,120.43047788519208,
6_con_circum,0.25,6,29,15,537,17,,,,6_con_circum_image_14.png,14,367.5409384965431,367.7924045121996,,,,,1,1,2024-10-28_18h31.36.691,visual,2024.1.5,120.43047788519208,
2_con_totaldot,0.25,2,29,16,538,7,,,,2_con_totaldot_image_47.png,47,367.89970953757876,368.15126105423553,,,,,1,1,2024-10-28_18h31.36.691,visual,2024.1.5,120.43047788519208,
4_con_circum,0.25,4,29,17,539,15,,,,4_con_circum_image_22.png,22,368.2577820794657,368.508332929248,5.wav,368.60996837494895,7.mp4,368.60996837494895,1,1,2024-10-28_18h31.36.691,visual,2024.1.5,120.43047788519208,
5_con_totaldot,0.25,5,30,0,540,10,,,,5_con_totaldot_image_55.png,55,370.45107660298237,370.70078572120985,,,,,1,1,2024-10-28_18h31.36.691,visual,2024.1.5,120.43047788519208,
2_con_circum,0.25,2,30,1,541,13,,,,2_con_circum_image_69.png,69,370.80705212156755,371.0580533462577,,,,,1,1,2024-10-28_18h31.36.691,visual,2024.1.5,120.43047788519208,
6_con_totaldot,0.25,6,30,2,542,11,,,,6_con_totaldot_image_56.png,56,371.1674004964996,371.41830963725226,,,,,1,1,2024-10-28_18h31.36.691,visual,2024.1.5,120.43047788519208,
2_con_singledot,0.25,2,30,3,543,1,,,,2_con_singledot_image_7.png,7,371.5251112875529,371.77581005417744,,,,,1,1,2024-10-28_18h31.36.691,visual,2024.1.5,120.43047788519208,
3_con_singledot,0.25,3,30,4,544,2,,,,3_con_singledot_image_2.png,2,371.88296916249675,372.13457247116605,,,,,1,1,2024-10-28_18h31.36.691,visual,2024.1.5,120.43047788519208,
1_con_totaldot,0.25,1,30,5,545,6,,,,1_con_totaldot_image_54.png,54,372.24045603752603,372.4914294712013,,,,,1,1,2024-10-28_18h31.36.691,visual,2024.1.5,120.43047788519208,
5_con_singledot,0.25,5,30,6,546,4,,,,5_con_singledot_image_59.png,59,372.5997966625262,372.85164267921357,,,,,1,1,2024-10-28_18h31.36.691,visual,2024.1.5,120.43047788519208,
4_con_totaldot,0.25,4,30,7,547,9,,,,4_con_totaldot_image_46.png,46,372.9581539545441,373.2076111372095,,,,,1,1,2024-10-28_18h31.36.691,visual,2024.1.5,120.43047788519208,
1_con_singledot,0.25,1,30,8,548,0,,,,1_con_singledot_image_16.png,16,373.3171614965657,373.56811617922506,,,,,1,1,2024-10-28_18h31.36.691,visual,2024.1.5,120.43047788519208,
6_con_singledot,0.25,6,30,9,549,5,,,,6_con_singledot_image_70.png,70,373.674806162552,373.9247523872415,,,,,1,1,2024-10-28_18h31.36.691,visual,2024.1.5,120.43047788519208,
2_con_totaldot,0.25,2,30,10,550,7,,,,2_con_totaldot_image_19.png,19,374.0338094125735,374.28466055416504,,,,,1,1,2024-10-28_18h31.36.691,visual,2024.1.5,120.43047788519208,
6_con_circum,0.25,6,30,11,551,17,,,,6_con_circum_image_61.png,61,374.3921229545493,374.6417993462179,,,,,1,1,2024-10-28_18h31.36.691,visual,2024.1.5,120.43047788519208,
4_con_singledot,0.25,4,30,12,552,3,,,,4_con_singledot_image_67.png,67,374.75094012154733,375.00084047114944,,,,,1,1,2024-10-28_18h31.36.691,visual,2024.1.5,120.43047788519208,
3_con_circum,0.25,3,30,13,553,14,,,,3_con_circum_image_64.png,64,375.1074173295172,375.3588538042037,,,,,1,1,2024-10-28_18h31.36.691,visual,2024.1.5,120.43047788519208,
3_con_totaldot,0.25,3,30,14,554,8,,,,3_con_totaldot_image_69.png,69,375.4666939124698,375.7176460122224,,,,,1,1,2024-10-28_18h31.36.691,visual,2024.1.5,120.43047788519208,
4_con_circum,0.25,4,30,15,555,15,,,,4_con_circum_image_56.png,56,375.8242569545517,376.0750288871583,,,,,1,1,2024-10-28_18h31.36.691,visual,2024.1.5,120.43047788519208,
1_con_circum,0.25,1,30,16,556,12,,,,1_con_circum_image_58.png,58,376.1831037465716,376.43420913724697,,,,,1,1,2024-10-28_18h31.36.691,visual,2024.1.5,120.43047788519208,
5_con_circum,0.25,5,30,17,557,16,,,,5_con_circum_image_64.png,64,376.54095774651506,376.7921176372562,3.wav,376.89293812506367,7.mp4,376.89293812506367,1,1,2024-10-28_18h31.36.691,visual,2024.1.5,120.43047788519208,
6_con_singledot,0.25,6,31,0,558,5,,,,6_con_singledot_image_21.png,21,378.7147926439764,378.9679552621907,,,,,1,1,2024-10-28_18h31.36.691,visual,2024.1.5,120.43047788519208,
3_con_circum,0.25,3,31,1,559,14,,,,3_con_circum_image_13.png,13,379.0741314545274,379.3244385961676,,,,,1,1,2024-10-28_18h31.36.691,visual,2024.1.5,120.43047788519208,
1_con_singledot,0.25,1,31,2,560,0,,,,1_con_singledot_image_59.png,59,379.4339634124888,379.6846771372017,,,,,1,1,2024-10-28_18h31.36.691,visual,2024.1.5,120.43047788519208,
1_con_circum,0.25,1,31,3,561,12,,,,1_con_circum_image_38.png,38,379.79069820449223,380.042185179214,,,,,1,1,2024-10-28_18h31.36.691,visual,2024.1.5,120.43047788519208,
6_con_circum,0.25,6,31,4,562,17,,,,6_con_circum_image_38.png,38,380.1506675795652,380.40086667917205,,,,,1,1,2024-10-28_18h31.36.691,visual,2024.1.5,120.43047788519208,
4_con_circum,0.25,4,31,5,563,15,,,,4_con_circum_image_5.png,5,380.50742062153296,380.7587963042548,,,,,1,1,2024-10-28_18h31.36.691,visual,2024.1.5,120.43047788519208,
5_con_totaldot,0.25,5,31,6,564,10,,,,5_con_totaldot_image_37.png,37,380.8668446215568,381.11868892915084,,,,,1,1,2024-10-28_18h31.36.691,visual,2024.1.5,120.43047788519208,
4_con_singledot,0.25,4,31,7,565,3,,,,4_con_singledot_image_44.png,44,381.2269015794853,381.4851044292096,,,,,1,1,2024-10-28_18h31.36.691,visual,2024.1.5,120.43047788519208,
2_con_totaldot,0.25,2,31,8,566,7,,,,2_con_totaldot_image_16.png,16,381.5934036215302,381.851808846253,,,,,1,1,2024-10-28_18h31.36.691,visual,2024.1.5,120.43047788519208,
3_con_totaldot,0.25,3,31,9,567,8,,,,3_con_totaldot_image_41.png,41,381.9585706624901,382.20927930416076,,,,,1,1,2024-10-28_18h31.36.691,visual,2024.1.5,120.43047788519208,
3_con_singledot,0.25,3,31,10,568,2,,,,3_con_singledot_image_68.png,68,382.3172916625161,382.56764576225544,,,,,1,1,2024-10-28_18h31.36.691,visual,2024.1.5,120.43047788519208,
6_con_totaldot,0.25,6,31,11,569,11,,,,6_con_totaldot_image_48.png,48,382.6743839125382,382.9258420962375,,,,,1,1,2024-10-28_18h31.36.691,visual,2024.1.5,120.43047788519208,
5_con_singledot,0.25,5,31,12,570,4,,,,5_con_singledot_image_28.png,28,383.0339978294913,383.2851073461585,,,,,1,1,2024-10-28_18h31.36.691,visual,2024.1.5,120.43047788519208,
2_con_singledot,0.25,2,31,13,571,1,,,,2_con_singledot_image_49.png,49,383.39167020453607,383.6418770122342,,,,,1,1,2024-10-28_18h31.36.691,visual,2024.1.5,120.43047788519208,
2_con_circum,0.25,2,31,14,572,13,,,,2_con_circum_image_16.png,16,383.7512770375004,384.0014780961443,,,,,1,1,2024-10-28_18h31.36.691,visual,2024.1.5,120.43047788519208,
