condition,duration,numerosity,trials.thisRepN,trials.thisTrialN,trials.thisN,trials.thisIndex,thisRow.t,notes,text_welcome.started,image_name,image_number,image.started,image.stopped,audio_name,audio_started,movie_name,movie_started,participant,session,date|hid,expName|hid,psychopyVersion|hid,frameRate,
6_con_singledot,0.25,6,0,0,0,5,,,5.057879599999978,6_con_singledot_image_1.png,1,36.967431249999976,37.232241390000006,,,,,1,1,2024-10-29_10h05.55.903,visual,2024.1.5,59.66419796104643,
2_con_totaldot,0.25,2,0,1,1,7,,,,2_con_totaldot_image_11.png,11,37.39980549999996,37.66437788999996,,,,,1,1,2024-10-29_10h05.55.903,visual,2024.1.5,59.66419796104643,
2_con_circum,0.25,2,0,2,2,13,,,,2_con_circum_image_11.png,11,37.83073459999997,38.080997389999986,,,,,1,1,2024-10-29_10h05.55.903,visual,2024.1.5,59.66419796104643,
1_con_circum,0.25,1,0,3,3,12,,,,1_con_circum_image_40.png,40,38.24894379999995,38.514385089999955,,,,,1,1,2024-10-29_10h05.55.903,visual,2024.1.5,59.66419796104643,
1_con_singledot,0.25,1,0,4,4,0,,,,1_con_singledot_image_4.png,4,38.68145679999998,38.93071588999998,,,,,1,1,2024-10-29_10h05.55.903,visual,2024.1.5,59.66419796104643,
3_con_totaldot,0.25,3,0,5,5,8,,,,3_con_totaldot_image_66.png,66,39.09726759999995,39.347384889999994,,,,,1,1,2024-10-29_10h05.55.903,visual,2024.1.5,59.66419796104643,
5_con_totaldot,0.25,5,0,6,6,10,,,,5_con_totaldot_image_25.png,25,39.5139504,39.76723619,,,,,1,1,2024-10-29_10h05.55.903,visual,2024.1.5,59.66419796104643,
3_con_circum,0.25,3,0,7,7,14,,,,3_con_circum_image_16.png,16,39.930934399999956,40.184907790000004,,,,,1,1,2024-10-29_10h05.55.903,visual,2024.1.5,59.66419796104643,
6_con_circum,0.25,6,0,8,8,17,,,,6_con_circum_image_1.png,1,40.35388329999995,40.61442458999999,,,,,1,1,2024-10-29_10h05.55.903,visual,2024.1.5,59.66419796104643,
4_con_singledot,0.25,4,0,9,9,3,,,,4_con_singledot_image_60.png,60,40.78398219999997,41.03481508999999,,,,,1,1,2024-10-29_10h05.55.903,visual,2024.1.5,59.66419796104643,
5_con_singledot,0.25,5,0,10,10,4,,,,5_con_singledot_image_58.png,58,41.201460699999984,41.451202389999985,,,,,1,1,2024-10-29_10h05.55.903,visual,2024.1.5,59.66419796104643,
1_con_totaldot,0.25,1,0,11,11,6,,,,1_con_totaldot_image_31.png,31,41.61752419999999,41.880614589999986,,,,,1,1,2024-10-29_10h05.55.903,visual,2024.1.5,59.66419796104643,
5_con_circum,0.25,5,0,12,12,16,,,,5_con_circum_image_64.png,64,42.047553799999946,42.29748978999998,,,,,1,1,2024-10-29_10h05.55.903,visual,2024.1.5,59.66419796104643,
3_con_singledot,0.25,3,0,13,13,2,,,,3_con_singledot_image_67.png,67,42.46513449999998,42.71437549,,,,,1,1,2024-10-29_10h05.55.903,visual,2024.1.5,59.66419796104643,
2_con_singledot,0.25,2,0,14,14,1,,,,2_con_singledot_image_32.png,32,42.882326199999966,43.13274939000001,,,,,1,1,2024-10-29_10h05.55.903,visual,2024.1.5,59.66419796104643,
6_con_totaldot,0.25,6,0,15,15,11,,,,6_con_totaldot_image_33.png,33,43.29872039999998,43.548122289999974,,,,,1,1,2024-10-29_10h05.55.903,visual,2024.1.5,59.66419796104643,
4_con_totaldot,0.25,4,0,16,16,9,,,,4_con_totaldot_image_37.png,37,43.714084199999945,43.96454739,,,,,1,1,2024-10-29_10h05.55.903,visual,2024.1.5,59.66419796104643,
4_con_circum,0.25,4,0,17,17,15,,,,4_con_circum_image_34.png,34,44.14734728999996,44.39745938999999,3.wav,44.49802669999997,12.mp4,44.49802669999997,1,1,2024-10-29_10h05.55.903,visual,2024.1.5,59.66419796104643,
5_con_singledot,0.25,5,1,0,18,4,,,,5_con_singledot_image_14.png,14,46.42391206999989,46.680835989999984,,,,,1,1,2024-10-29_10h05.55.903,visual,2024.1.5,59.66419796104643,
5_con_circum,0.25,5,1,1,19,16,,,,5_con_circum_image_40.png,40,46.85055019999999,47.11416529000001,,,,,1,1,2024-10-29_10h05.55.903,visual,2024.1.5,59.66419796104643,
1_con_singledot,0.25,1,1,2,20,0,,,,1_con_singledot_image_28.png,28,47.280702099999985,47.533770389999965,,,,,1,1,2024-10-29_10h05.55.903,visual,2024.1.5,59.66419796104643,
4_con_singledot,0.25,4,1,3,21,3,,,,4_con_singledot_image_33.png,33,47.69740349999995,47.950424289999994,,,,,1,1,2024-10-29_10h05.55.903,visual,2024.1.5,59.66419796104643,
1_con_totaldot,0.25,1,1,4,22,6,,,,1_con_totaldot_image_36.png,36,48.11409209999999,48.367114089999966,,,,,1,1,2024-10-29_10h05.55.903,visual,2024.1.5,59.66419796104643,
6_con_singledot,0.25,6,1,5,23,5,,,,6_con_singledot_image_18.png,18,48.53378239999995,48.79743629,,,,,1,1,2024-10-29_10h05.55.903,visual,2024.1.5,59.66419796104643,
6_con_totaldot,0.25,6,1,6,24,11,,,,6_con_totaldot_image_14.png,14,48.94739051,49.197558889999975,,,,,1,1,2024-10-29_10h05.55.903,visual,2024.1.5,59.66419796104643,
2_con_circum,0.25,2,1,7,25,13,,,,2_con_circum_image_52.png,52,49.36410079999996,49.62069829,,,,,1,1,2024-10-29_10h05.55.903,visual,2024.1.5,59.66419796104643,
2_con_totaldot,0.25,2,1,8,26,7,,,,2_con_totaldot_image_52.png,52,49.77048130999999,50.030861889999976,,,,,1,1,2024-10-29_10h05.55.903,visual,2024.1.5,59.66419796104643,
6_con_circum,0.25,6,1,9,27,17,,,,6_con_circum_image_17.png,17,50.19739019999997,50.45028558999996,,,,,1,1,2024-10-29_10h05.55.903,visual,2024.1.5,59.66419796104643,
4_con_totaldot,0.25,4,1,10,28,9,,,,4_con_totaldot_image_44.png,44,50.61695709999998,50.880700789999985,,,,,1,1,2024-10-29_10h05.55.903,visual,2024.1.5,59.66419796104643,
3_con_totaldot,0.25,3,1,11,29,8,,,,3_con_totaldot_image_11.png,11,51.030658809999984,51.28366478999998,,,,,1,1,2024-10-29_10h05.55.903,visual,2024.1.5,59.66419796104643,
3_con_singledot,0.25,3,1,12,30,2,,,,3_con_singledot_image_13.png,13,51.45025909999998,51.700372889999976,,,,,1,1,2024-10-29_10h05.55.903,visual,2024.1.5,59.66419796104643,
3_con_circum,0.25,3,1,13,31,14,,,,3_con_circum_image_56.png,56,51.86396209999998,52.11689588999996,,,,,1,1,2024-10-29_10h05.55.903,visual,2024.1.5,59.66419796104643,
4_con_circum,0.25,4,1,14,32,15,,,,4_con_circum_image_17.png,17,52.28063569999995,52.53372828999999,,,,,1,1,2024-10-29_10h05.55.903,visual,2024.1.5,59.66419796104643,
1_con_circum,0.25,1,1,15,33,12,,,,1_con_circum_image_26.png,26,52.70026379999996,52.967035790000004,,,,,1,1,2024-10-29_10h05.55.903,visual,2024.1.5,59.66419796104643,
2_con_singledot,0.25,2,1,16,34,1,,,,2_con_singledot_image_50.png,50,53.13365679999998,53.39753199,,,,,1,1,2024-10-29_10h05.55.903,visual,2024.1.5,59.66419796104643,
5_con_totaldot,0.25,5,1,17,35,10,,,,5_con_totaldot_image_63.png,63,53.56424259999994,53.817102089999985,2.wav,53.91506609999999,13.mp4,53.91506609999999,1,1,2024-10-29_10h05.55.903,visual,2024.1.5,59.66419796104643,
2_con_totaldot,0.25,2,2,0,36,7,,,,2_con_totaldot_image_6.png,6,55.81898817999989,56.08059478999996,,,,,1,1,2024-10-29_10h05.55.903,visual,2024.1.5,59.66419796104643,
6_con_totaldot,0.25,6,2,1,37,11,,,,6_con_totaldot_image_63.png,63,56.23042790999995,56.48049128999997,,,,,1,1,2024-10-29_10h05.55.903,visual,2024.1.5,59.66419796104643,
2_con_circum,0.25,2,2,2,38,13,,,,2_con_circum_image_24.png,24,56.64723139999995,56.897321389999995,,,,,1,1,2024-10-29_10h05.55.903,visual,2024.1.5,59.66419796104643,
3_con_singledot,0.25,3,2,3,39,2,,,,3_con_singledot_image_29.png,29,57.06374109999996,57.316977290000004,,,,,1,1,2024-10-29_10h05.55.903,visual,2024.1.5,59.66419796104643,
4_con_singledot,0.25,4,2,4,40,3,,,,4_con_singledot_image_21.png,21,57.483655999999996,57.73369938999996,,,,,1,1,2024-10-29_10h05.55.903,visual,2024.1.5,59.66419796104643,
5_con_totaldot,0.25,5,2,5,41,10,,,,5_con_totaldot_image_19.png,19,57.89737119999995,58.14734699000001,,,,,1,1,2024-10-29_10h05.55.903,visual,2024.1.5,59.66419796104643,
3_con_totaldot,0.25,3,2,6,42,8,,,,3_con_totaldot_image_20.png,20,58.31688699999995,58.56692778999996,,,,,1,1,2024-10-29_10h05.55.903,visual,2024.1.5,59.66419796104643,
4_con_totaldot,0.25,4,2,7,43,9,,,,4_con_totaldot_image_52.png,52,58.73357219999997,58.98365148999999,,,,,1,1,2024-10-29_10h05.55.903,visual,2024.1.5,59.66419796104643,
4_con_circum,0.25,4,2,8,44,15,,,,4_con_circum_image_61.png,61,59.15028099999995,59.400309689999965,,,,,1,1,2024-10-29_10h05.55.903,visual,2024.1.5,59.66419796104643,
3_con_circum,0.25,3,2,9,45,14,,,,3_con_circum_image_35.png,35,59.5639602,59.81704468999998,,,,,1,1,2024-10-29_10h05.55.903,visual,2024.1.5,59.66419796104643,
5_con_circum,0.25,5,2,10,46,16,,,,5_con_circum_image_21.png,21,59.983682999999985,60.23354609,,,,,1,1,2024-10-29_10h05.55.903,visual,2024.1.5,59.66419796104643,
6_con_circum,0.25,6,2,11,47,17,,,,6_con_circum_image_69.png,69,60.40026469999998,60.666894089999964,,,,,1,1,2024-10-29_10h05.55.903,visual,2024.1.5,59.66419796104643,
6_con_singledot,0.25,6,2,12,48,5,,,,6_con_singledot_image_12.png,12,60.81689380999996,61.083590289999954,,,,,1,1,2024-10-29_10h05.55.903,visual,2024.1.5,59.66419796104643,
2_con_singledot,0.25,2,2,13,49,1,,,,2_con_singledot_image_34.png,34,61.24732369999998,61.500216990000006,,,,,1,1,2024-10-29_10h05.55.903,visual,2024.1.5,59.66419796104643,
1_con_totaldot,0.25,1,2,14,50,6,,,,1_con_totaldot_image_52.png,52,61.66685639999997,61.916902689999965,,,,,1,1,2024-10-29_10h05.55.903,visual,2024.1.5,59.66419796104643,
1_con_singledot,0.25,1,2,15,51,0,,,,1_con_singledot_image_57.png,57,62.08353349999999,62.33364368999997,,,,,1,1,2024-10-29_10h05.55.903,visual,2024.1.5,59.66419796104643,
1_con_circum,0.25,1,2,16,52,12,,,,1_con_circum_image_47.png,47,62.5001269,62.764131490000004,,,,,1,1,2024-10-29_10h05.55.903,visual,2024.1.5,59.66419796104643,
5_con_singledot,0.25,5,2,17,53,4,,,,5_con_singledot_image_48.png,48,62.933555199999944,63.18351079000001,1.wav,63.28136459999996,1.mp4,63.28136459999996,1,1,2024-10-29_10h05.55.903,visual,2024.1.5,59.66419796104643,
6_con_singledot,0.25,6,3,0,54,5,,,,6_con_singledot_image_19.png,19,65.19564387999992,65.44708758999997,,,,,1,1,2024-10-29_10h05.55.903,visual,2024.1.5,59.66419796104643,
5_con_totaldot,0.25,5,3,1,55,10,,,,5_con_totaldot_image_1.png,1,65.61367869999998,65.86393928999996,,,,,1,1,2024-10-29_10h05.55.903,visual,2024.1.5,59.66419796104643,
6_con_circum,0.25,6,3,2,56,17,,,,6_con_circum_image_19.png,19,66.03051349999998,66.28048859,,,,,1,1,2024-10-29_10h05.55.903,visual,2024.1.5,59.66419796104643,
5_con_circum,0.25,5,3,3,57,16,,,,5_con_circum_image_6.png,6,66.44713599999994,66.69707278999999,,,,,1,1,2024-10-29_10h05.55.903,visual,2024.1.5,59.66419796104643,
3_con_singledot,0.25,3,3,4,58,2,,,,3_con_singledot_image_20.png,20,66.86370399999998,67.11698349,,,,,1,1,2024-10-29_10h05.55.903,visual,2024.1.5,59.66419796104643,
1_con_singledot,0.25,1,3,5,59,0,,,,1_con_singledot_image_18.png,18,67.28081209999999,67.53369588999999,,,,,1,1,2024-10-29_10h05.55.903,visual,2024.1.5,59.66419796104643,
2_con_totaldot,0.25,2,3,6,60,7,,,,2_con_totaldot_image_36.png,36,67.70036899999997,67.95381899,,,,,1,1,2024-10-29_10h05.55.903,visual,2024.1.5,59.66419796104643,
4_con_circum,0.25,4,3,7,61,15,,,,4_con_circum_image_25.png,25,68.12047749999999,68.38051049,,,,,1,1,2024-10-29_10h05.55.903,visual,2024.1.5,59.66419796104643,
6_con_totaldot,0.25,6,3,8,62,11,,,,6_con_totaldot_image_45.png,45,68.54713019999997,68.79702198999996,,,,,1,1,2024-10-29_10h05.55.903,visual,2024.1.5,59.66419796104643,
3_con_circum,0.25,3,3,9,63,14,,,,3_con_circum_image_26.png,26,68.94697111,69.19721658999998,,,,,1,1,2024-10-29_10h05.55.903,visual,2024.1.5,59.66419796104643,
5_con_singledot,0.25,5,3,10,64,4,,,,5_con_singledot_image_18.png,18,69.36382299999997,69.61389849,,,,,1,1,2024-10-29_10h05.55.903,visual,2024.1.5,59.66419796104643,
1_con_circum,0.25,1,3,11,65,12,,,,1_con_circum_image_68.png,68,69.78050549999995,70.03036428999997,,,,,1,1,2024-10-29_10h05.55.903,visual,2024.1.5,59.66419796104643,
2_con_circum,0.25,2,3,12,66,13,,,,2_con_circum_image_9.png,9,70.19704539999998,70.44705209,,,,,1,1,2024-10-29_10h05.55.903,visual,2024.1.5,59.66419796104643,
1_con_totaldot,0.25,1,3,13,67,6,,,,1_con_totaldot_image_2.png,2,70.61381379999995,70.86703678999999,,,,,1,1,2024-10-29_10h05.55.903,visual,2024.1.5,59.66419796104643,
4_con_totaldot,0.25,4,3,14,68,9,,,,4_con_totaldot_image_39.png,39,71.03353769999995,71.28361088999998,,,,,1,1,2024-10-29_10h05.55.903,visual,2024.1.5,59.66419796104643,
2_con_singledot,0.25,2,3,15,69,1,,,,2_con_singledot_image_20.png,20,71.45028969999998,71.70031238999997,,,,,1,1,2024-10-29_10h05.55.903,visual,2024.1.5,59.66419796104643,
4_con_singledot,0.25,4,3,16,70,3,,,,4_con_singledot_image_35.png,35,71.86394759999996,72.11402539,,,,,1,1,2024-10-29_10h05.55.903,visual,2024.1.5,59.66419796104643,
3_con_totaldot,0.25,3,3,17,71,8,,,,3_con_totaldot_image_33.png,33,72.28695799999997,72.55005518999997,1.wav,72.65128849999996,12.mp4,72.65128849999996,1,1,2024-10-29_10h05.55.903,visual,2024.1.5,59.66419796104643,
2_con_circum,0.25,2,4,0,72,13,,,,2_con_circum_image_47.png,47,74.56051737999991,74.81378409000001,,,,,1,1,2024-10-29_10h05.55.903,visual,2024.1.5,59.66419796104643,
5_con_circum,0.25,5,4,1,73,16,,,,5_con_circum_image_44.png,44,74.98073979999998,75.23048778999998,,,,,1,1,2024-10-29_10h05.55.903,visual,2024.1.5,59.66419796104643,
5_con_singledot,0.25,5,4,2,74,4,,,,5_con_singledot_image_52.png,52,75.39711999999997,75.64705658999998,,,,,1,1,2024-10-29_10h05.55.903,visual,2024.1.5,59.66419796104643,
3_con_singledot,0.25,3,4,3,75,2,,,,3_con_singledot_image_24.png,24,75.79704290999997,76.05027688999996,,,,,1,1,2024-10-29_10h05.55.903,visual,2024.1.5,59.66419796104643,
2_con_totaldot,0.25,2,4,4,76,7,,,,2_con_totaldot_image_1.png,1,76.21704419999998,76.46689399000002,,,,,1,1,2024-10-29_10h05.55.903,visual,2024.1.5,59.66419796104643,
4_con_singledot,0.25,4,4,5,77,3,,,,4_con_singledot_image_27.png,27,76.63352169999996,76.88343979000001,,,,,1,1,2024-10-29_10h05.55.903,visual,2024.1.5,59.66419796104643,
6_con_totaldot,0.25,6,4,6,78,11,,,,6_con_totaldot_image_6.png,6,77.04715119999997,77.29716618999998,,,,,1,1,2024-10-29_10h05.55.903,visual,2024.1.5,59.66419796104643,
3_con_totaldot,0.25,3,4,7,79,8,,,,3_con_totaldot_image_2.png,2,77.46381429999997,77.71675719000001,,,,,1,1,2024-10-29_10h05.55.903,visual,2024.1.5,59.66419796104643,
5_con_totaldot,0.25,5,4,8,80,10,,,,5_con_totaldot_image_7.png,7,77.88337329999996,78.14717218999999,,,,,1,1,2024-10-29_10h05.55.903,visual,2024.1.5,59.66419796104643,
1_con_circum,0.25,1,4,9,81,12,,,,1_con_circum_image_6.png,6,78.31676199999998,78.56678839,,,,,1,1,2024-10-29_10h05.55.903,visual,2024.1.5,59.66419796104643,
2_con_singledot,0.25,2,4,10,82,1,,,,2_con_singledot_image_27.png,27,78.73341029999995,79.00010549000001,,,,,1,1,2024-10-29_10h05.55.903,visual,2024.1.5,59.66419796104643,
1_con_totaldot,0.25,1,4,11,83,6,,,,1_con_totaldot_image_17.png,17,79.16689579999996,79.41683639000001,,,,,1,1,2024-10-29_10h05.55.903,visual,2024.1.5,59.66419796104643,
1_con_singledot,0.25,1,4,12,84,0,,,,1_con_singledot_image_10.png,10,79.58336839999998,79.83349539,,,,,1,1,2024-10-29_10h05.55.903,visual,2024.1.5,59.66419796104643,
4_con_totaldot,0.25,4,4,13,85,9,,,,4_con_totaldot_image_20.png,20,80.00013839999997,80.26358978999997,,,,,1,1,2024-10-29_10h05.55.903,visual,2024.1.5,59.66419796104643,
3_con_circum,0.25,3,4,14,86,14,,,,3_con_circum_image_24.png,24,80.43031409999998,80.68032589,,,,,1,1,2024-10-29_10h05.55.903,visual,2024.1.5,59.66419796104643,
6_con_singledot,0.25,6,4,15,87,5,,,,6_con_singledot_image_32.png,32,80.84698069999996,81.09710668999998,,,,,1,1,2024-10-29_10h05.55.903,visual,2024.1.5,59.66419796104643,
6_con_circum,0.25,6,4,16,88,17,,,,6_con_circum_image_8.png,8,81.26356229999999,81.51360748999997,,,,,1,1,2024-10-29_10h05.55.903,visual,2024.1.5,59.66419796104643,
4_con_circum,0.25,4,4,17,89,15,,,,4_con_circum_image_39.png,39,81.68024159999999,81.93031558999996,1.wav,82.03229119999997,13.mp4,82.03229119999997,1,1,2024-10-29_10h05.55.903,visual,2024.1.5,59.66419796104643,
5_con_singledot,0.25,5,5,0,90,4,,,,5_con_singledot_image_27.png,27,83.93659587999991,84.19724438999998,,,,,1,1,2024-10-29_10h05.55.903,visual,2024.1.5,59.66419796104643,
3_con_circum,0.25,3,5,1,91,14,,,,3_con_circum_image_59.png,59,84.36376709999996,84.61674778999998,,,,,1,1,2024-10-29_10h05.55.903,visual,2024.1.5,59.66419796104643,
1_con_singledot,0.25,1,5,2,92,0,,,,1_con_singledot_image_52.png,52,84.78063299999997,85.03360119000001,,,,,1,1,2024-10-29_10h05.55.903,visual,2024.1.5,59.66419796104643,
4_con_circum,0.25,4,5,3,93,15,,,,4_con_circum_image_35.png,35,85.20008039999999,85.46672959,,,,,1,1,2024-10-29_10h05.55.903,visual,2024.1.5,59.66419796104643,
1_con_circum,0.25,1,5,4,94,12,,,,1_con_circum_image_39.png,39,85.63339749999994,85.88341458999997,,,,,1,1,2024-10-29_10h05.55.903,visual,2024.1.5,59.66419796104643,
6_con_circum,0.25,6,5,5,95,17,,,,6_con_circum_image_7.png,7,86.05000669999998,86.30010419000001,,,,,1,1,2024-10-29_10h05.55.903,visual,2024.1.5,59.66419796104643,
5_con_circum,0.25,5,5,6,96,16,,,,5_con_circum_image_47.png,47,86.45010081,86.70009318999996,,,,,1,1,2024-10-29_10h05.55.903,visual,2024.1.5,59.66419796104643,
6_con_singledot,0.25,6,5,7,97,5,,,,6_con_singledot_image_59.png,59,86.86381779999999,87.11675508999997,,,,,1,1,2024-10-29_10h05.55.903,visual,2024.1.5,59.66419796104643,
4_con_singledot,0.25,4,5,8,98,3,,,,4_con_singledot_image_40.png,40,87.28347229999997,87.53344478999998,,,,,1,1,2024-10-29_10h05.55.903,visual,2024.1.5,59.66419796104643,
2_con_circum,0.25,2,5,9,99,13,,,,2_con_circum_image_20.png,20,87.70003449999996,87.95011129,,,,,1,1,2024-10-29_10h05.55.903,visual,2024.1.5,59.66419796104643,
2_con_totaldot,0.25,2,5,10,100,7,,,,2_con_totaldot_image_12.png,12,88.11377279999999,88.36377608999999,,,,,1,1,2024-10-29_10h05.55.903,visual,2024.1.5,59.66419796104643,
2_con_singledot,0.25,2,5,11,101,1,,,,2_con_singledot_image_57.png,57,88.53037649999999,88.78337569000001,,,,,1,1,2024-10-29_10h05.55.903,visual,2024.1.5,59.66419796104643,
1_con_totaldot,0.25,1,5,12,102,6,,,,1_con_totaldot_image_46.png,46,88.94718919999997,89.20009799000002,,,,,1,1,2024-10-29_10h05.55.903,visual,2024.1.5,59.66419796104643,
5_con_totaldot,0.25,5,5,13,103,10,,,,5_con_totaldot_image_17.png,17,89.36673389999999,89.63044909000001,,,,,1,1,2024-10-29_10h05.55.903,visual,2024.1.5,59.66419796104643,
4_con_totaldot,0.25,4,5,14,104,9,,,,4_con_totaldot_image_63.png,63,89.80003079999994,90.05010888999999,,,,,1,1,2024-10-29_10h05.55.903,visual,2024.1.5,59.66419796104643,
3_con_singledot,0.25,3,5,15,105,2,,,,3_con_singledot_image_47.png,47,90.21372929999995,90.46673958999997,,,,,1,1,2024-10-29_10h05.55.903,visual,2024.1.5,59.66419796104643,
3_con_totaldot,0.25,3,5,16,106,8,,,,3_con_totaldot_image_36.png,36,90.63335899999998,90.88351678999999,,,,,1,1,2024-10-29_10h05.55.903,visual,2024.1.5,59.66419796104643,
6_con_totaldot,0.25,6,5,17,107,11,,,,6_con_totaldot_image_30.png,30,91.05022499999995,91.30012109,5.wav,91.40044319999998,11.mp4,91.40044319999998,1,1,2024-10-29_10h05.55.903,visual,2024.1.5,59.66419796104643,
6_con_totaldot,0.25,6,6,0,108,11,,,,6_con_totaldot_image_26.png,26,93.30218617999992,93.56357638999998,,,,,1,1,2024-10-29_10h05.55.903,visual,2024.1.5,59.66419796104643,
4_con_totaldot,0.25,4,6,1,109,9,,,,4_con_totaldot_image_29.png,29,93.73019169999998,93.98023468999997,,,,,1,1,2024-10-29_10h05.55.903,visual,2024.1.5,59.66419796104643,
3_con_totaldot,0.25,3,6,2,110,8,,,,3_con_totaldot_image_4.png,4,94.14685709999998,94.40031589,,,,,1,1,2024-10-29_10h05.55.903,visual,2024.1.5,59.66419796104643,
6_con_singledot,0.25,6,6,3,111,5,,,,6_con_singledot_image_70.png,70,94.56376909999994,94.81406448999996,,,,,1,1,2024-10-29_10h05.55.903,visual,2024.1.5,59.66419796104643,
4_con_circum,0.25,4,6,4,112,15,,,,4_con_circum_image_15.png,15,94.98344939999998,95.23352858999999,,,,,1,1,2024-10-29_10h05.55.903,visual,2024.1.5,59.66419796104643,
1_con_totaldot,0.25,1,6,5,113,6,,,,1_con_totaldot_image_70.png,70,95.39718979999998,95.65018008999999,,,,,1,1,2024-10-29_10h05.55.903,visual,2024.1.5,59.66419796104643,
2_con_singledot,0.25,2,6,6,114,1,,,,2_con_singledot_image_22.png,22,95.81677779999995,96.08687308999998,,,,,1,1,2024-10-29_10h05.55.903,visual,2024.1.5,59.66419796104643,
2_con_circum,0.25,2,6,7,115,13,,,,2_con_circum_image_49.png,49,96.25349299999999,96.51349189000001,,,,,1,1,2024-10-29_10h05.55.903,visual,2024.1.5,59.66419796104643,
5_con_singledot,0.25,5,6,8,116,4,,,,5_con_singledot_image_35.png,35,96.68009859999995,96.93021398999997,,,,,1,1,2024-10-29_10h05.55.903,visual,2024.1.5,59.66419796104643,
6_con_circum,0.25,6,6,9,117,17,,,,6_con_circum_image_51.png,51,97.08015380999997,97.33026598999999,,,,,1,1,2024-10-29_10h05.55.903,visual,2024.1.5,59.66419796104643,
5_con_totaldot,0.25,5,6,10,118,10,,,,5_con_totaldot_image_41.png,41,97.49678929999999,97.74685548999997,,,,,1,1,2024-10-29_10h05.55.903,visual,2024.1.5,59.66419796104643,
2_con_totaldot,0.25,2,6,11,119,7,,,,2_con_totaldot_image_29.png,29,97.91355689999995,98.16355589,,,,,1,1,2024-10-29_10h05.55.903,visual,2024.1.5,59.66419796104643,
5_con_circum,0.25,5,6,12,120,16,,,,5_con_circum_image_24.png,24,98.33018579999998,98.58026509000001,,,,,1,1,2024-10-29_10h05.55.903,visual,2024.1.5,59.66419796104643,
4_con_singledot,0.25,4,6,13,121,3,,,,4_con_singledot_image_43.png,43,98.75016469999997,99.00001119000001,,,,,1,1,2024-10-29_10h05.55.903,visual,2024.1.5,59.66419796104643,
3_con_circum,0.25,3,6,14,122,14,,,,3_con_circum_image_43.png,43,99.18332178999998,99.43349129,,,,,1,1,2024-10-29_10h05.55.903,visual,2024.1.5,59.66419796104643,
1_con_circum,0.25,1,6,15,123,12,,,,1_con_circum_image_10.png,10,99.60028019999999,99.85009178999996,,,,,1,1,2024-10-29_10h05.55.903,visual,2024.1.5,59.66419796104643,
3_con_singledot,0.25,3,6,16,124,2,,,,3_con_singledot_image_6.png,6,100.01684059999997,100.28063258999998,,,,,1,1,2024-10-29_10h05.55.903,visual,2024.1.5,59.66419796104643,
1_con_singledot,0.25,1,6,17,125,0,,,,1_con_singledot_image_19.png,19,100.45348819999998,100.71372888999997,2.wav,100.81785500000001,12.mp4,100.81785500000001,1,1,2024-10-29_10h05.55.903,visual,2024.1.5,59.66419796104643,
3_con_circum,0.25,3,7,0,126,14,,,,3_con_circum_image_44.png,44,102.7490869799999,103.01356519000001,,,,,1,1,2024-10-29_10h05.55.903,visual,2024.1.5,59.66419796104643,
5_con_circum,0.25,5,7,1,127,16,,,,5_con_circum_image_30.png,30,103.18025479999994,103.43020598999999,,,,,1,1,2024-10-29_10h05.55.903,visual,2024.1.5,59.66419796104643,
2_con_circum,0.25,2,7,2,128,13,,,,2_con_circum_image_41.png,41,103.59682489999994,103.84691198999997,,,,,1,1,2024-10-29_10h05.55.903,visual,2024.1.5,59.66419796104643,
3_con_totaldot,0.25,3,7,3,129,8,,,,3_con_totaldot_image_19.png,19,104.0135009,104.26682648999997,,,,,1,1,2024-10-29_10h05.55.903,visual,2024.1.5,59.66419796104643,
5_con_singledot,0.25,5,7,4,130,4,,,,5_con_singledot_image_11.png,11,104.43345519999997,104.68348249000002,,,,,1,1,2024-10-29_10h05.55.903,visual,2024.1.5,59.66419796104643,
6_con_circum,0.25,6,7,5,131,17,,,,6_con_circum_image_49.png,49,104.85013039999995,105.11395389,,,,,1,1,2024-10-29_10h05.55.903,visual,2024.1.5,59.66419796104643,
3_con_singledot,0.25,3,7,6,132,2,,,,3_con_singledot_image_59.png,59,105.28684779999998,105.54682099000001,,,,,1,1,2024-10-29_10h05.55.903,visual,2024.1.5,59.66419796104643,
4_con_totaldot,0.25,4,7,7,133,9,,,,4_con_totaldot_image_7.png,7,105.713415,105.96358369000001,,,,,1,1,2024-10-29_10h05.55.903,visual,2024.1.5,59.66419796104643,
1_con_circum,0.25,1,7,8,134,12,,,,1_con_circum_image_55.png,55,106.13006929999995,106.38014539,,,,,1,1,2024-10-29_10h05.55.903,visual,2024.1.5,59.66419796104643,
6_con_singledot,0.25,6,7,9,135,5,,,,6_con_singledot_image_8.png,8,106.54673959999997,106.79677699000001,,,,,1,1,2024-10-29_10h05.55.903,visual,2024.1.5,59.66419796104643,
1_con_singledot,0.25,1,7,10,136,0,,,,1_con_singledot_image_23.png,23,106.98007408999996,107.23041038999997,,,,,1,1,2024-10-29_10h05.55.903,visual,2024.1.5,59.66419796104643,
2_con_totaldot,0.25,2,7,11,137,7,,,,2_con_totaldot_image_38.png,38,107.39700919999996,107.64689209,,,,,1,1,2024-10-29_10h05.55.903,visual,2024.1.5,59.66419796104643,
2_con_singledot,0.25,2,7,12,138,1,,,,2_con_singledot_image_24.png,24,107.81355499999995,108.06380779,,,,,1,1,2024-10-29_10h05.55.903,visual,2024.1.5,59.66419796104643,
1_con_totaldot,0.25,1,7,13,139,6,,,,1_con_totaldot_image_49.png,49,108.23327209999997,108.48347718999997,,,,,1,1,2024-10-29_10h05.55.903,visual,2024.1.5,59.66419796104643,
4_con_singledot,0.25,4,7,14,140,3,,,,4_con_singledot_image_51.png,51,108.647065,108.90016349000001,,,,,1,1,2024-10-29_10h05.55.903,visual,2024.1.5,59.66419796104643,
6_con_totaldot,0.25,6,7,15,141,11,,,,6_con_totaldot_image_60.png,60,109.06374929999998,109.31387668999997,,,,,1,1,2024-10-29_10h05.55.903,visual,2024.1.5,59.66419796104643,
5_con_totaldot,0.25,5,7,16,142,10,,,,5_con_totaldot_image_70.png,70,109.48674259999996,109.75008049000002,,,,,1,1,2024-10-29_10h05.55.903,visual,2024.1.5,59.66419796104643,
4_con_circum,0.25,4,7,17,143,15,,,,4_con_circum_image_42.png,42,109.91660149999996,110.16668799000001,3.wav,110.26794279999996,4.mp4,110.26794279999996,1,1,2024-10-29_10h05.55.903,visual,2024.1.5,59.66419796104643,
4_con_singledot,0.25,4,8,0,144,3,,,,4_con_singledot_image_52.png,52,112.1725379799999,112.43012658999999,,,,,1,1,2024-10-29_10h05.55.903,visual,2024.1.5,59.66419796104643,
1_con_singledot,0.25,1,8,1,145,0,,,,1_con_singledot_image_12.png,12,112.59674859999996,112.84682308999999,,,,,1,1,2024-10-29_10h05.55.903,visual,2024.1.5,59.66419796104643,
2_con_circum,0.25,2,8,2,146,13,,,,2_con_circum_image_61.png,61,113.01344519999998,113.26349408999994,,,,,1,1,2024-10-29_10h05.55.903,visual,2024.1.5,59.66419796104643,
2_con_singledot,0.25,2,8,3,147,1,,,,2_con_singledot_image_28.png,28,113.43007739999996,113.68344298999995,,,,,1,1,2024-10-29_10h05.55.903,visual,2024.1.5,59.66419796104643,
6_con_circum,0.25,6,8,4,148,17,,,,6_con_circum_image_36.png,36,113.89702017,114.14707899000001,,,,,1,1,2024-10-29_10h05.55.903,visual,2024.1.5,59.66419796104643,
4_con_totaldot,0.25,4,8,5,149,9,,,,4_con_totaldot_image_21.png,21,114.31673909999995,114.56682418999998,,,,,1,1,2024-10-29_10h05.55.903,visual,2024.1.5,59.66419796104643,
5_con_singledot,0.25,5,8,6,150,4,,,,5_con_singledot_image_68.png,68,114.73355079999999,114.98683119000003,,,,,1,1,2024-10-29_10h05.55.903,visual,2024.1.5,59.66419796104643,
1_con_circum,0.25,1,8,7,151,12,,,,1_con_circum_image_8.png,8,115.153505,115.41341079,,,,,1,1,2024-10-29_10h05.55.903,visual,2024.1.5,59.66419796104643,
5_con_circum,0.25,5,8,8,152,16,,,,5_con_circum_image_54.png,54,115.58004849999998,115.83004089000002,,,,,1,1,2024-10-29_10h05.55.903,visual,2024.1.5,59.66419796104643,
6_con_singledot,0.25,6,8,9,153,5,,,,6_con_singledot_image_62.png,62,115.99676119999992,116.24674879000003,,,,,1,1,2024-10-29_10h05.55.903,visual,2024.1.5,59.66419796104643,
4_con_circum,0.25,4,8,10,154,15,,,,4_con_circum_image_49.png,49,116.41335679999997,116.66342218999995,,,,,1,1,2024-10-29_10h05.55.903,visual,2024.1.5,59.66419796104643,
3_con_singledot,0.25,3,8,11,155,2,,,,3_con_singledot_image_8.png,8,116.83001960000001,117.08012069,,,,,1,1,2024-10-29_10h05.55.903,visual,2024.1.5,59.66419796104643,
3_con_totaldot,0.25,3,8,12,156,8,,,,3_con_totaldot_image_21.png,21,117.24691329999996,117.50008038999994,,,,,1,1,2024-10-29_10h05.55.903,visual,2024.1.5,59.66419796104643,
2_con_totaldot,0.25,2,8,13,157,7,,,,2_con_totaldot_image_13.png,13,117.66366629999993,117.91671459000003,,,,,1,1,2024-10-29_10h05.55.903,visual,2024.1.5,59.66419796104643,
3_con_circum,0.25,3,8,14,158,14,,,,3_con_circum_image_38.png,38,118.0833996,118.33343979,,,,,1,1,2024-10-29_10h05.55.903,visual,2024.1.5,59.66419796104643,
6_con_totaldot,0.25,6,8,15,159,11,,,,6_con_totaldot_image_34.png,34,118.50015109999993,118.75009388999996,,,,,1,1,2024-10-29_10h05.55.903,visual,2024.1.5,59.66419796104643,
1_con_totaldot,0.25,1,8,16,160,6,,,,1_con_totaldot_image_5.png,5,118.90005000999999,119.17009378999995,,,,,1,1,2024-10-29_10h05.55.903,visual,2024.1.5,59.66419796104643,
5_con_totaldot,0.25,5,8,17,161,10,,,,5_con_totaldot_image_26.png,26,119.33673090000002,119.59695878999997,5.wav,119.69746189999995,7.mp4,119.69746189999995,1,1,2024-10-29_10h05.55.903,visual,2024.1.5,59.66419796104643,
1_con_totaldot,0.25,1,9,0,162,6,,,,1_con_totaldot_image_22.png,22,121.60067767999988,121.86339109,,,,,1,1,2024-10-29_10h05.55.903,visual,2024.1.5,59.66419796104643,
5_con_circum,0.25,5,9,1,163,16,,,,5_con_circum_image_9.png,9,122.02997129999994,122.28016319,,,,,1,1,2024-10-29_10h05.55.903,visual,2024.1.5,59.66419796104643,
6_con_singledot,0.25,6,9,2,164,5,,,,6_con_singledot_image_24.png,24,122.4467545,122.69703019000002,,,,,1,1,2024-10-29_10h05.55.903,visual,2024.1.5,59.66419796104643,
4_con_singledot,0.25,4,9,3,165,3,,,,4_con_singledot_image_13.png,13,122.86342439999999,123.11659469,,,,,1,1,2024-10-29_10h05.55.903,visual,2024.1.5,59.66419796104643,
5_con_totaldot,0.25,5,9,4,166,10,,,,5_con_totaldot_image_45.png,45,123.28327179999997,123.53331619,,,,,1,1,2024-10-29_10h05.55.903,visual,2024.1.5,59.66419796104643,
6_con_circum,0.25,6,9,5,167,17,,,,6_con_circum_image_53.png,53,123.69699209999999,123.94991479000004,,,,,1,1,2024-10-29_10h05.55.903,visual,2024.1.5,59.66419796104643,
2_con_circum,0.25,2,9,6,168,13,,,,2_con_circum_image_65.png,65,124.11355040000001,124.36655648999994,,,,,1,1,2024-10-29_10h05.55.903,visual,2024.1.5,59.66419796104643,
6_con_totaldot,0.25,6,9,7,169,11,,,,6_con_totaldot_image_9.png,9,124.53324099999998,124.78330278999994,,,,,1,1,2024-10-29_10h05.55.903,visual,2024.1.5,59.66419796104643,
4_con_circum,0.25,4,9,8,170,15,,,,4_con_circum_image_21.png,21,124.94690319999995,125.19991179000004,,,,,1,1,2024-10-29_10h05.55.903,visual,2024.1.5,59.66419796104643,
3_con_circum,0.25,3,9,9,171,14,,,,3_con_circum_image_30.png,30,125.36650259999999,125.61663748999996,,,,,1,1,2024-10-29_10h05.55.903,visual,2024.1.5,59.66419796104643,
2_con_singledot,0.25,2,9,10,172,1,,,,2_con_singledot_image_4.png,4,125.78025400000001,126.03327249,,,,,1,1,2024-10-29_10h05.55.903,visual,2024.1.5,59.66419796104643,
4_con_totaldot,0.25,4,9,11,173,9,,,,4_con_totaldot_image_33.png,33,126.19994409999993,126.46765449000003,,,,,1,1,2024-10-29_10h05.55.903,visual,2024.1.5,59.66419796104643,
5_con_singledot,0.25,5,9,12,174,4,,,,5_con_singledot_image_3.png,3,126.62992399999996,126.88004309000002,,,,,1,1,2024-10-29_10h05.55.903,visual,2024.1.5,59.66419796104643,
3_con_totaldot,0.25,3,9,13,175,8,,,,3_con_totaldot_image_14.png,14,127.04663689999995,127.29778669000001,,,,,1,1,2024-10-29_10h05.55.903,visual,2024.1.5,59.66419796104643,
1_con_singledot,0.25,1,9,14,176,0,,,,1_con_singledot_image_14.png,14,127.46324479999998,127.71333298999997,,,,,1,1,2024-10-29_10h05.55.903,visual,2024.1.5,59.66419796104643,
2_con_totaldot,0.25,2,9,15,177,7,,,,2_con_totaldot_image_63.png,63,127.87991449999993,128.13001559000003,,,,,1,1,2024-10-29_10h05.55.903,visual,2024.1.5,59.66419796104643,
1_con_circum,0.25,1,9,16,178,12,,,,1_con_circum_image_61.png,61,128.29664589999993,128.54674778999998,,,,,1,1,2024-10-29_10h05.55.903,visual,2024.1.5,59.66419796104643,
3_con_singledot,0.25,3,9,17,179,2,,,,3_con_singledot_image_16.png,16,128.71338689999993,128.96354078999997,4.wav,129.0678492,1.mp4,129.0678492,1,1,2024-10-29_10h05.55.903,visual,2024.1.5,59.66419796104643,
2_con_singledot,0.25,2,10,0,180,1,,,,2_con_singledot_image_48.png,48,130.95744868999998,131.21356998999994,,,,,1,1,2024-10-29_10h05.55.903,visual,2024.1.5,59.66419796104643,
2_con_circum,0.25,2,10,1,181,13,,,,2_con_circum_image_69.png,69,131.3803097,131.63311118999997,,,,,1,1,2024-10-29_10h05.55.903,visual,2024.1.5,59.66419796104643,
4_con_singledot,0.25,4,10,2,182,3,,,,4_con_singledot_image_39.png,39,131.79971149999994,132.06654939000003,,,,,1,1,2024-10-29_10h05.55.903,visual,2024.1.5,59.66419796104643,
6_con_circum,0.25,6,10,3,183,17,,,,6_con_circum_image_45.png,45,132.23017570000002,132.48320258999996,,,,,1,1,2024-10-29_10h05.55.903,visual,2024.1.5,59.66419796104643,
5_con_circum,0.25,5,10,4,184,16,,,,5_con_circum_image_52.png,52,132.64682759999994,132.90000459000004,,,,,1,1,2024-10-29_10h05.55.903,visual,2024.1.5,59.66419796104643,
4_con_totaldot,0.25,4,10,5,185,9,,,,4_con_totaldot_image_36.png,36,133.06362719999993,133.31654949,,,,,1,1,2024-10-29_10h05.55.903,visual,2024.1.5,59.66419796104643,
4_con_circum,0.25,4,10,6,186,15,,,,4_con_circum_image_54.png,54,133.48322080000003,133.74659169,,,,,1,1,2024-10-29_10h05.55.903,visual,2024.1.5,59.66419796104643,
1_con_singledot,0.25,1,10,7,187,0,,,,1_con_singledot_image_55.png,55,133.8965802099999,134.14663429,,,,,1,1,2024-10-29_10h05.55.903,visual,2024.1.5,59.66419796104643,
2_con_totaldot,0.25,2,10,8,188,7,,,,2_con_totaldot_image_4.png,4,134.31321830000002,134.56332339,,,,,1,1,2024-10-29_10h05.55.903,visual,2024.1.5,59.66419796104643,
1_con_totaldot,0.25,1,10,9,189,6,,,,1_con_totaldot_image_65.png,65,134.72994369999992,134.98016078999996,,,,,1,1,2024-10-29_10h05.55.903,visual,2024.1.5,59.66419796104643,
6_con_totaldot,0.25,6,10,10,190,11,,,,6_con_totaldot_image_37.png,37,135.12988860999997,135.37999918999998,,,,,1,1,2024-10-29_10h05.55.903,visual,2024.1.5,59.66419796104643,
5_con_totaldot,0.25,5,10,11,191,10,,,,5_con_totaldot_image_6.png,6,135.54659379999998,135.79667129,,,,,1,1,2024-10-29_10h05.55.903,visual,2024.1.5,59.66419796104643,
5_con_singledot,0.25,5,10,12,192,4,,,,5_con_singledot_image_34.png,34,135.9633086,136.21363529,,,,,1,1,2024-10-29_10h05.55.903,visual,2024.1.5,59.66419796104643,
3_con_circum,0.25,3,10,13,193,14,,,,3_con_circum_image_70.png,70,136.3831196,136.63330329000001,,,,,1,1,2024-10-29_10h05.55.903,visual,2024.1.5,59.66419796104643,
3_con_totaldot,0.25,3,10,14,194,8,,,,3_con_totaldot_image_50.png,50,136.79691309999998,137.04992179000004,,,,,1,1,2024-10-29_10h05.55.903,visual,2024.1.5,59.66419796104643,
3_con_singledot,0.25,3,10,15,195,2,,,,3_con_singledot_image_32.png,32,137.21656459999997,137.48324249,,,,,1,1,2024-10-29_10h05.55.903,visual,2024.1.5,59.66419796104643,
6_con_singledot,0.25,6,10,16,196,5,,,,6_con_singledot_image_22.png,22,137.64991859999998,137.91647688999996,,,,,1,1,2024-10-29_10h05.55.903,visual,2024.1.5,59.66419796104643,
1_con_circum,0.25,1,10,17,197,12,,,,1_con_circum_image_54.png,54,138.08311789999993,138.34659999000002,1.wav,138.4477473,1.mp4,138.4477473,1,1,2024-10-29_10h05.55.903,visual,2024.1.5,59.66419796104643,
5_con_circum,0.25,5,11,0,198,16,,,,5_con_circum_image_57.png,57,140.36299027999996,140.61330908999997,,,,,1,1,2024-10-29_10h05.55.903,visual,2024.1.5,59.66419796104643,
3_con_totaldot,0.25,3,11,1,199,8,,,,3_con_totaldot_image_26.png,26,140.77991399999996,141.03003579,,,,,1,1,2024-10-29_10h05.55.903,visual,2024.1.5,59.66419796104643,
5_con_singledot,0.25,5,11,2,200,4,,,,5_con_singledot_image_55.png,55,141.19661099999996,141.44691118999998,,,,,1,1,2024-10-29_10h05.55.903,visual,2024.1.5,59.66419796104643,
3_con_singledot,0.25,3,11,3,201,2,,,,3_con_singledot_image_60.png,60,141.61643119999997,141.86986288999998,,,,,1,1,2024-10-29_10h05.55.903,visual,2024.1.5,59.66419796104643,
6_con_circum,0.25,6,11,4,202,17,,,,6_con_circum_image_56.png,56,142.03656119999994,142.29992419,,,,,1,1,2024-10-29_10h05.55.903,visual,2024.1.5,59.66419796104643,
1_con_circum,0.25,1,11,5,203,12,,,,1_con_circum_image_11.png,11,142.46640779999996,142.71655139,,,,,1,1,2024-10-29_10h05.55.903,visual,2024.1.5,59.66419796104643,
4_con_circum,0.25,4,11,6,204,15,,,,4_con_circum_image_50.png,50,142.88022669999998,143.13025709000004,,,,,1,1,2024-10-29_10h05.55.903,visual,2024.1.5,59.66419796104643,
1_con_totaldot,0.25,1,11,7,205,6,,,,1_con_totaldot_image_43.png,43,143.29692179999995,143.54991268999999,,,,,1,1,2024-10-29_10h05.55.903,visual,2024.1.5,59.66419796104643,
2_con_circum,0.25,2,11,8,206,13,,,,2_con_circum_image_32.png,32,143.71364419999998,143.96325698999993,,,,,1,1,2024-10-29_10h05.55.903,visual,2024.1.5,59.66419796104643,
4_con_singledot,0.25,4,11,9,207,3,,,,4_con_singledot_image_12.png,12,144.11315880999996,144.36323029,,,,,1,1,2024-10-29_10h05.55.903,visual,2024.1.5,59.66419796104643,
1_con_singledot,0.25,1,11,10,208,0,,,,1_con_singledot_image_51.png,51,144.52985969999997,144.78008379,,,,,1,1,2024-10-29_10h05.55.903,visual,2024.1.5,59.66419796104643,
4_con_totaldot,0.25,4,11,11,209,9,,,,4_con_totaldot_image_57.png,57,144.94652610000003,145.19663319,,,,,1,1,2024-10-29_10h05.55.903,visual,2024.1.5,59.66419796104643,
2_con_totaldot,0.25,2,11,12,210,7,,,,2_con_totaldot_image_14.png,14,145.36320309999996,145.61325079,,,,,1,1,2024-10-29_10h05.55.903,visual,2024.1.5,59.66419796104643,
5_con_totaldot,0.25,5,11,13,211,10,,,,5_con_totaldot_image_68.png,68,145.78005299999995,146.03005519000004,,,,,1,1,2024-10-29_10h05.55.903,visual,2024.1.5,59.66419796104643,
6_con_totaldot,0.25,6,11,14,212,11,,,,6_con_totaldot_image_47.png,47,146.19669449999992,146.44661259000003,,,,,1,1,2024-10-29_10h05.55.903,visual,2024.1.5,59.66419796104643,
6_con_singledot,0.25,6,11,15,213,5,,,,6_con_singledot_image_52.png,52,146.61321739999994,146.86659429000002,,,,,1,1,2024-10-29_10h05.55.903,visual,2024.1.5,59.66419796104643,
3_con_circum,0.25,3,11,16,214,14,,,,3_con_circum_image_63.png,63,147.03023859999996,147.28336458999996,,,,,1,1,2024-10-29_10h05.55.903,visual,2024.1.5,59.66419796104643,
2_con_singledot,0.25,2,11,17,215,1,,,,2_con_singledot_image_12.png,12,147.44991959999993,147.71656378999995,5.wav,147.8171587,14.mp4,147.8171587,1,1,2024-10-29_10h05.55.903,visual,2024.1.5,59.66419796104643,
4_con_circum,0.25,4,12,0,216,15,,,,4_con_circum_image_51.png,51,149.72077607999995,149.98033808999998,,,,,1,1,2024-10-29_10h05.55.903,visual,2024.1.5,59.66419796104643,
1_con_singledot,0.25,1,12,1,217,0,,,,1_con_singledot_image_61.png,61,150.13006911000002,150.38308698999998,,,,,1,1,2024-10-29_10h05.55.903,visual,2024.1.5,59.66419796104643,
4_con_singledot,0.25,4,12,2,218,3,,,,4_con_singledot_image_69.png,69,150.54671859999996,150.79974198999997,,,,,1,1,2024-10-29_10h05.55.903,visual,2024.1.5,59.66419796104643,
6_con_singledot,0.25,6,12,3,219,5,,,,6_con_singledot_image_15.png,15,150.96340249999992,151.21656338999998,,,,,1,1,2024-10-29_10h05.55.903,visual,2024.1.5,59.66419796104643,
3_con_singledot,0.25,3,12,4,220,2,,,,3_con_singledot_image_41.png,41,151.38005099999998,151.63018609,,,,,1,1,2024-10-29_10h05.55.903,visual,2024.1.5,59.66419796104643,
2_con_circum,0.25,2,12,5,221,13,,,,2_con_circum_image_14.png,14,151.7997967,152.04978579000004,,,,,1,1,2024-10-29_10h05.55.903,visual,2024.1.5,59.66419796104643,
6_con_circum,0.25,6,12,6,222,17,,,,6_con_circum_image_10.png,10,152.21641949999992,152.46630149000003,,,,,1,1,2024-10-29_10h05.55.903,visual,2024.1.5,59.66419796104643,
5_con_circum,0.25,5,12,7,223,16,,,,5_con_circum_image_8.png,8,152.63299949999998,152.88309909000003,,,,,1,1,2024-10-29_10h05.55.903,visual,2024.1.5,59.66419796104643,
1_con_circum,0.25,1,12,8,224,12,,,,1_con_circum_image_50.png,50,153.04677979999997,153.29679739,,,,,1,1,2024-10-29_10h05.55.903,visual,2024.1.5,59.66419796104643,
3_con_circum,0.25,3,12,9,225,14,,,,3_con_circum_image_55.png,55,153.46630959999993,153.71640539000003,,,,,1,1,2024-10-29_10h05.55.903,visual,2024.1.5,59.66419796104643,
2_con_singledot,0.25,2,12,10,226,1,,,,2_con_singledot_image_54.png,54,153.88302019999992,154.13312308999997,,,,,1,1,2024-10-29_10h05.55.903,visual,2024.1.5,59.66419796104643,
3_con_totaldot,0.25,3,12,11,227,8,,,,3_con_totaldot_image_10.png,10,154.29671869999993,154.54681779000003,,,,,1,1,2024-10-29_10h05.55.903,visual,2024.1.5,59.66419796104643,
6_con_totaldot,0.25,6,12,12,228,11,,,,6_con_totaldot_image_56.png,56,154.7164136,154.98033908999997,,,,,1,1,2024-10-29_10h05.55.903,visual,2024.1.5,59.66419796104643,
4_con_totaldot,0.25,4,12,13,229,9,,,,4_con_totaldot_image_12.png,12,155.1496141,155.41651588999997,,,,,1,1,2024-10-29_10h05.55.903,visual,2024.1.5,59.66419796104643,
5_con_totaldot,0.25,5,12,14,230,10,,,,5_con_totaldot_image_20.png,20,155.58302600000002,155.83304169000002,,,,,1,1,2024-10-29_10h05.55.903,visual,2024.1.5,59.66419796104643,
1_con_totaldot,0.25,1,12,15,231,6,,,,1_con_totaldot_image_61.png,61,155.9967299,156.24979838999997,,,,,1,1,2024-10-29_10h05.55.903,visual,2024.1.5,59.66419796104643,
5_con_singledot,0.25,5,12,16,232,4,,,,5_con_singledot_image_26.png,26,156.41634169999998,156.66640259000002,,,,,1,1,2024-10-29_10h05.55.903,visual,2024.1.5,59.66419796104643,
2_con_totaldot,0.25,2,12,17,233,7,,,,2_con_totaldot_image_20.png,20,156.83307349999995,157.09979899,3.wav,157.19822270000003,4.mp4,157.19822270000003,1,1,2024-10-29_10h05.55.903,visual,2024.1.5,59.66419796104643,
4_con_circum,0.25,4,13,0,234,15,,,,4_con_circum_image_6.png,6,159.10170707999998,159.36330359000004,,,,,1,1,2024-10-29_10h05.55.903,visual,2024.1.5,59.66419796104643,
1_con_singledot,0.25,1,13,1,235,0,,,,1_con_singledot_image_69.png,69,159.52974289999997,159.78006438999995,,,,,1,1,2024-10-29_10h05.55.903,visual,2024.1.5,59.66419796104643,
2_con_circum,0.25,2,13,2,236,13,,,,2_con_circum_image_48.png,48,159.9466559,160.19656388999994,,,,,1,1,2024-10-29_10h05.55.903,visual,2024.1.5,59.66419796104643,
2_con_singledot,0.25,2,13,3,237,1,,,,2_con_singledot_image_43.png,43,160.3631755,160.61331699,,,,,1,1,2024-10-29_10h05.55.903,visual,2024.1.5,59.66419796104643,
3_con_singledot,0.25,3,13,4,238,2,,,,3_con_singledot_image_42.png,42,160.7798894,161.03317368999996,,,,,1,1,2024-10-29_10h05.55.903,visual,2024.1.5,59.66419796104643,
5_con_singledot,0.25,5,13,5,239,4,,,,5_con_singledot_image_9.png,9,161.18317480999997,161.43346018999995,,,,,1,1,2024-10-29_10h05.55.903,visual,2024.1.5,59.66419796104643,
4_con_singledot,0.25,4,13,6,240,3,,,,4_con_singledot_image_6.png,6,161.59662200000002,161.85322029000002,,,,,1,1,2024-10-29_10h05.55.903,visual,2024.1.5,59.66419796104643,
2_con_totaldot,0.25,2,13,7,241,7,,,,2_con_totaldot_image_16.png,16,162.0132919,162.26315169000003,,,,,1,1,2024-10-29_10h05.55.903,visual,2024.1.5,59.66419796104643,
5_con_circum,0.25,5,13,8,242,16,,,,5_con_circum_image_67.png,67,162.42977989999997,162.67984999000004,,,,,1,1,2024-10-29_10h05.55.903,visual,2024.1.5,59.66419796104643,
3_con_circum,0.25,3,13,9,243,14,,,,3_con_circum_image_32.png,32,162.84643859999994,163.09647208999996,,,,,1,1,2024-10-29_10h05.55.903,visual,2024.1.5,59.66419796104643,
3_con_totaldot,0.25,3,13,10,244,8,,,,3_con_totaldot_image_60.png,60,163.26307039999995,163.51327928999996,,,,,1,1,2024-10-29_10h05.55.903,visual,2024.1.5,59.66419796104643,
6_con_singledot,0.25,6,13,11,245,5,,,,6_con_singledot_image_61.png,61,163.69643249,163.94655809,,,,,1,1,2024-10-29_10h05.55.903,visual,2024.1.5,59.66419796104643,
6_con_totaldot,0.25,6,13,12,246,11,,,,6_con_totaldot_image_7.png,7,164.1131563,164.36635639000002,,,,,1,1,2024-10-29_10h05.55.903,visual,2024.1.5,59.66419796104643,
1_con_circum,0.25,1,13,13,247,12,,,,1_con_circum_image_66.png,66,164.53299299999992,164.78312008999995,,,,,1,1,2024-10-29_10h05.55.903,visual,2024.1.5,59.66419796104643,
1_con_totaldot,0.25,1,13,14,248,6,,,,1_con_totaldot_image_54.png,54,164.9497321,165.19974949,,,,,1,1,2024-10-29_10h05.55.903,visual,2024.1.5,59.66419796104643,
4_con_totaldot,0.25,4,13,15,249,9,,,,4_con_totaldot_image_70.png,70,165.36344959999997,165.61644709,,,,,1,1,2024-10-29_10h05.55.903,visual,2024.1.5,59.66419796104643,
5_con_totaldot,0.25,5,13,16,250,10,,,,5_con_totaldot_image_8.png,8,165.78305849999992,166.03308019000002,,,,,1,1,2024-10-29_10h05.55.903,visual,2024.1.5,59.66419796104643,
6_con_circum,0.25,6,13,17,251,17,,,,6_con_circum_image_29.png,29,166.19977649999998,166.44998839,5.wav,166.55116619999995,1.mp4,166.55116619999995,1,1,2024-10-29_10h05.55.903,visual,2024.1.5,59.66419796104643,
1_con_totaldot,0.25,1,14,0,252,6,,,,1_con_totaldot_image_39.png,39,168.4540443799999,168.71621949000001,,,,,1,1,2024-10-29_10h05.55.903,visual,2024.1.5,59.66419796104643,
5_con_singledot,0.25,5,14,1,253,4,,,,5_con_singledot_image_2.png,2,168.88302249999992,169.14956778999994,,,,,1,1,2024-10-29_10h05.55.903,visual,2024.1.5,59.66419796104643,
2_con_totaldot,0.25,2,14,2,254,7,,,,2_con_totaldot_image_50.png,50,169.31615079999995,169.57999808999995,,,,,1,1,2024-10-29_10h05.55.903,visual,2024.1.5,59.66419796104643,
6_con_circum,0.25,6,14,3,255,17,,,,6_con_circum_image_22.png,22,169.74676739999995,169.99962379000004,,,,,1,1,2024-10-29_10h05.55.903,visual,2024.1.5,59.66419796104643,
3_con_singledot,0.25,3,14,4,256,2,,,,3_con_singledot_image_15.png,15,170.16327949999993,170.41348728999998,,,,,1,1,2024-10-29_10h05.55.903,visual,2024.1.5,59.66419796104643,
6_con_totaldot,0.25,6,14,5,257,11,,,,6_con_totaldot_image_4.png,4,170.5828944,170.83302179000003,,,,,1,1,2024-10-29_10h05.55.903,visual,2024.1.5,59.66419796104643,
1_con_singledot,0.25,1,14,6,258,0,,,,1_con_singledot_image_13.png,13,171.01625608999996,171.26633868999994,,,,,1,1,2024-10-29_10h05.55.903,visual,2024.1.5,59.66419796104643,
5_con_circum,0.25,5,14,7,259,16,,,,5_con_circum_image_5.png,5,171.43290779999995,171.68305229000003,,,,,1,1,2024-10-29_10h05.55.903,visual,2024.1.5,59.66419796104643,
1_con_circum,0.25,1,14,8,260,12,,,,1_con_circum_image_51.png,51,171.84664439999995,172.10311528999995,,,,,1,1,2024-10-29_10h05.55.903,visual,2024.1.5,59.66419796104643,
3_con_circum,0.25,3,14,9,261,14,,,,3_con_circum_image_19.png,19,172.263016,172.51310528999994,,,,,1,1,2024-10-29_10h05.55.903,visual,2024.1.5,59.66419796104643,
2_con_circum,0.25,2,14,10,262,13,,,,2_con_circum_image_28.png,28,172.67971049999994,172.92976548999997,,,,,1,1,2024-10-29_10h05.55.903,visual,2024.1.5,59.66419796104643,
4_con_circum,0.25,4,14,11,263,15,,,,4_con_circum_image_64.png,64,173.09635609999998,173.34641058999995,,,,,1,1,2024-10-29_10h05.55.903,visual,2024.1.5,59.66419796104643,
3_con_totaldot,0.25,3,14,12,264,8,,,,3_con_totaldot_image_6.png,6,173.51301360000002,173.76304779000003,,,,,1,1,2024-10-29_10h05.55.903,visual,2024.1.5,59.66419796104643,
2_con_singledot,0.25,2,14,13,265,1,,,,2_con_singledot_image_33.png,33,173.92965579999998,174.17984388999997,,,,,1,1,2024-10-29_10h05.55.903,visual,2024.1.5,59.66419796104643,
4_con_singledot,0.25,4,14,14,266,3,,,,4_con_singledot_image_66.png,66,174.3464374,174.59662749,,,,,1,1,2024-10-29_10h05.55.903,visual,2024.1.5,59.66419796104643,
5_con_totaldot,0.25,5,14,15,267,10,,,,5_con_totaldot_image_5.png,5,174.76337389999992,175.01349498999997,,,,,1,1,2024-10-29_10h05.55.903,visual,2024.1.5,59.66419796104643,
4_con_totaldot,0.25,4,14,16,268,9,,,,4_con_totaldot_image_5.png,5,175.18310509999992,175.44967669,,,,,1,1,2024-10-29_10h05.55.903,visual,2024.1.5,59.66419796104643,
6_con_singledot,0.25,6,14,17,269,5,,,,6_con_singledot_image_54.png,54,175.6163775,175.88304559,4.wav,175.9849162,15.mp4,175.9849162,1,1,2024-10-29_10h05.55.903,visual,2024.1.5,59.66419796104643,
3_con_totaldot,0.25,3,15,0,270,8,,,,3_con_totaldot_image_52.png,52,177.88846607999994,178.14638219,,,,,1,1,2024-10-29_10h05.55.903,visual,2024.1.5,59.66419796104643,
2_con_circum,0.25,2,15,1,271,13,,,,2_con_circum_image_45.png,45,178.3129646,178.56313388999996,,,,,1,1,2024-10-29_10h05.55.903,visual,2024.1.5,59.66419796104643,
6_con_totaldot,0.25,6,15,2,272,11,,,,6_con_totaldot_image_36.png,36,178.72970759999998,178.97981038999995,,,,,1,1,2024-10-29_10h05.55.903,visual,2024.1.5,59.66419796104643,
5_con_circum,0.25,5,15,3,273,16,,,,5_con_circum_image_7.png,7,179.14640439999994,179.39962128999997,,,,,1,1,2024-10-29_10h05.55.903,visual,2024.1.5,59.66419796104643,
5_con_totaldot,0.25,5,15,4,274,10,,,,5_con_totaldot_image_29.png,29,179.56623849999994,179.81687629000004,,,,,1,1,2024-10-29_10h05.55.903,visual,2024.1.5,59.66419796104643,
3_con_singledot,0.25,3,15,5,275,2,,,,3_con_singledot_image_48.png,48,179.9830465,180.24961559000002,,,,,1,1,2024-10-29_10h05.55.903,visual,2024.1.5,59.66419796104643,
1_con_totaldot,0.25,1,15,6,276,6,,,,1_con_totaldot_image_23.png,23,180.41622499999994,180.66615379,,,,,1,1,2024-10-29_10h05.55.903,visual,2024.1.5,59.66419796104643,
1_con_singledot,0.25,1,15,7,277,0,,,,1_con_singledot_image_27.png,27,180.8300355,181.08289158999997,,,,,1,1,2024-10-29_10h05.55.903,visual,2024.1.5,59.66419796104643,
4_con_circum,0.25,4,15,8,278,15,,,,4_con_circum_image_53.png,53,181.24955709999995,181.49953928999997,,,,,1,1,2024-10-29_10h05.55.903,visual,2024.1.5,59.66419796104643,
4_con_singledot,0.25,4,15,9,279,3,,,,4_con_singledot_image_67.png,67,181.66324809999992,181.91619869000004,,,,,1,1,2024-10-29_10h05.55.903,visual,2024.1.5,59.66419796104643,
4_con_totaldot,0.25,4,15,10,280,9,,,,4_con_totaldot_image_9.png,9,182.06323930999997,182.31326799000004,,,,,1,1,2024-10-29_10h05.55.903,visual,2024.1.5,59.66419796104643,
3_con_circum,0.25,3,15,11,281,14,,,,3_con_circum_image_36.png,36,182.48285009999995,182.73308608999997,,,,,1,1,2024-10-29_10h05.55.903,visual,2024.1.5,59.66419796104643,
2_con_totaldot,0.25,2,15,12,282,7,,,,2_con_totaldot_image_43.png,43,182.89957089999996,183.15350428999994,,,,,1,1,2024-10-29_10h05.55.903,visual,2024.1.5,59.66419796104643,
5_con_singledot,0.25,5,15,13,283,4,,,,5_con_singledot_image_63.png,63,183.31356039999991,183.56302468999996,,,,,1,1,2024-10-29_10h05.55.903,visual,2024.1.5,59.66419796104643,
6_con_circum,0.25,6,15,14,284,17,,,,6_con_circum_image_5.png,5,183.7298813,183.97966808999996,,,,,1,1,2024-10-29_10h05.55.903,visual,2024.1.5,59.66419796104643,
2_con_singledot,0.25,2,15,15,285,1,,,,2_con_singledot_image_29.png,29,184.14629149999996,184.39638728999995,,,,,1,1,2024-10-29_10h05.55.903,visual,2024.1.5,59.66419796104643,
1_con_circum,0.25,1,15,16,286,12,,,,1_con_circum_image_46.png,46,184.5629778,184.81304388999996,,,,,1,1,2024-10-29_10h05.55.903,visual,2024.1.5,59.66419796104643,
6_con_singledot,0.25,6,15,17,287,5,,,,6_con_singledot_image_3.png,3,184.97967559999995,185.22977049000002,5.wav,185.33083619999996,2.mp4,185.33083619999996,1,1,2024-10-29_10h05.55.903,visual,2024.1.5,59.66419796104643,
4_con_singledot,0.25,4,16,0,288,3,,,,4_con_singledot_image_22.png,22,187.22376437999992,187.47990709000004,,,,,1,1,2024-10-29_10h05.55.903,visual,2024.1.5,59.66419796104643,
6_con_circum,0.25,6,16,1,289,17,,,,6_con_circum_image_24.png,24,187.64628629999993,187.89644188999995,,,,,1,1,2024-10-29_10h05.55.903,visual,2024.1.5,59.66419796104643,
1_con_circum,0.25,1,16,2,290,12,,,,1_con_circum_image_4.png,4,188.06294839999998,188.31310919000003,,,,,1,1,2024-10-29_10h05.55.903,visual,2024.1.5,59.66419796104643,
2_con_circum,0.25,2,16,3,291,13,,,,2_con_circum_image_60.png,60,188.4798525,188.72978379,,,,,1,1,2024-10-29_10h05.55.903,visual,2024.1.5,59.66419796104643,
1_con_singledot,0.25,1,16,4,292,0,,,,1_con_singledot_image_36.png,36,188.89637040000002,189.14981339000002,,,,,1,1,2024-10-29_10h05.55.903,visual,2024.1.5,59.66419796104643,
5_con_singledot,0.25,5,16,5,293,4,,,,5_con_singledot_image_33.png,33,189.3133434,189.56983988999997,,,,,1,1,2024-10-29_10h05.55.903,visual,2024.1.5,59.66419796104643,
4_con_totaldot,0.25,4,16,6,294,9,,,,4_con_totaldot_image_13.png,13,189.7364642,189.99645039,,,,,1,1,2024-10-29_10h05.55.903,visual,2024.1.5,59.66419796104643,
5_con_circum,0.25,5,16,7,295,16,,,,5_con_circum_image_16.png,16,190.1629994,190.41296339000002,,,,,1,1,2024-10-29_10h05.55.903,visual,2024.1.5,59.66419796104643,
3_con_circum,0.25,3,16,8,296,14,,,,3_con_circum_image_20.png,20,190.57956979999994,190.82963248999994,,,,,1,1,2024-10-29_10h05.55.903,visual,2024.1.5,59.66419796104643,
6_con_singledot,0.25,6,16,9,297,5,,,,6_con_singledot_image_23.png,23,190.99630960000002,191.24655729,,,,,1,1,2024-10-29_10h05.55.903,visual,2024.1.5,59.66419796104643,
2_con_totaldot,0.25,2,16,10,298,7,,,,2_con_totaldot_image_67.png,67,191.41316210000002,191.66306009,,,,,1,1,2024-10-29_10h05.55.903,visual,2024.1.5,59.66419796104643,
3_con_totaldot,0.25,3,16,11,299,8,,,,3_con_totaldot_image_63.png,63,191.82981059999997,192.07971169,,,,,1,1,2024-10-29_10h05.55.903,visual,2024.1.5,59.66419796104643,
4_con_circum,0.25,4,16,12,300,15,,,,4_con_circum_image_30.png,30,192.24629800000002,192.49959119,,,,,1,1,2024-10-29_10h05.55.903,visual,2024.1.5,59.66419796104643,
3_con_singledot,0.25,3,16,13,301,2,,,,3_con_singledot_image_18.png,18,192.66620899999998,192.91626578999995,,,,,1,1,2024-10-29_10h05.55.903,visual,2024.1.5,59.66419796104643,
6_con_totaldot,0.25,6,16,14,302,11,,,,6_con_totaldot_image_20.png,20,193.08292340000003,193.33626438999994,,,,,1,1,2024-10-29_10h05.55.903,visual,2024.1.5,59.66419796104643,
1_con_totaldot,0.25,1,16,15,303,6,,,,1_con_totaldot_image_1.png,1,193.50296830000002,193.76615758999998,,,,,1,1,2024-10-29_10h05.55.903,visual,2024.1.5,59.66419796104643,
2_con_singledot,0.25,2,16,16,304,1,,,,2_con_singledot_image_62.png,62,193.92987359999995,194.18280979000002,,,,,1,1,2024-10-29_10h05.55.903,visual,2024.1.5,59.66419796104643,
5_con_totaldot,0.25,5,16,17,305,10,,,,5_con_totaldot_image_59.png,59,194.34652670000003,194.59948288999993,3.wav,194.69741549999998,12.mp4,194.69741549999998,1,1,2024-10-29_10h05.55.903,visual,2024.1.5,59.66419796104643,
5_con_singledot,0.25,5,17,0,306,4,,,,5_con_singledot_image_60.png,60,196.61770597999998,196.87963788999997,,,,,1,1,2024-10-29_10h05.55.903,visual,2024.1.5,59.66419796104643,
6_con_singledot,0.25,6,17,1,307,5,,,,6_con_singledot_image_58.png,58,197.0463006,197.29657009,,,,,1,1,2024-10-29_10h05.55.903,visual,2024.1.5,59.66419796104643,
2_con_singledot,0.25,2,17,2,308,1,,,,2_con_singledot_image_40.png,40,197.4629539,197.71304548999996,,,,,1,1,2024-10-29_10h05.55.903,visual,2024.1.5,59.66419796104643,
1_con_totaldot,0.25,1,17,3,309,6,,,,1_con_totaldot_image_29.png,29,197.87964139999997,198.13301128999996,,,,,1,1,2024-10-29_10h05.55.903,visual,2024.1.5,59.66419796104643,
5_con_totaldot,0.25,5,17,4,310,10,,,,5_con_totaldot_image_55.png,55,198.29953019999994,198.54952268999995,,,,,1,1,2024-10-29_10h05.55.903,visual,2024.1.5,59.66419796104643,
4_con_singledot,0.25,4,17,5,311,3,,,,4_con_singledot_image_15.png,15,198.71612069999992,198.96626609000003,,,,,1,1,2024-10-29_10h05.55.903,visual,2024.1.5,59.66419796104643,
4_con_circum,0.25,4,17,6,312,15,,,,4_con_circum_image_27.png,27,199.12990909999996,199.38632749000004,,,,,1,1,2024-10-29_10h05.55.903,visual,2024.1.5,59.66419796104643,
2_con_totaldot,0.25,2,17,7,313,7,,,,2_con_totaldot_image_34.png,34,199.55288629999995,199.81613398999997,,,,,1,1,2024-10-29_10h05.55.903,visual,2024.1.5,59.66419796104643,
1_con_singledot,0.25,1,17,8,314,0,,,,1_con_singledot_image_33.png,33,199.98276169999997,200.23285048999998,,,,,1,1,2024-10-29_10h05.55.903,visual,2024.1.5,59.66419796104643,
4_con_totaldot,0.25,4,17,9,315,9,,,,4_con_totaldot_image_8.png,8,200.39951280000002,200.66610298999996,,,,,1,1,2024-10-29_10h05.55.903,visual,2024.1.5,59.66419796104643,
6_con_circum,0.25,6,17,10,316,17,,,,6_con_circum_image_62.png,62,200.83280419999994,201.08286029000004,,,,,1,1,2024-10-29_10h05.55.903,visual,2024.1.5,59.66419796104643,
3_con_totaldot,0.25,3,17,11,317,8,,,,3_con_totaldot_image_32.png,32,201.24647029999994,201.49958649,,,,,1,1,2024-10-29_10h05.55.903,visual,2024.1.5,59.66419796104643,
3_con_circum,0.25,3,17,12,318,14,,,,3_con_circum_image_40.png,40,201.66324799999995,201.91616639,,,,,1,1,2024-10-29_10h05.55.903,visual,2024.1.5,59.66419796104643,
2_con_circum,0.25,2,17,13,319,13,,,,2_con_circum_image_44.png,44,202.0828451,202.33286818999994,,,,,1,1,2024-10-29_10h05.55.903,visual,2024.1.5,59.66419796104643,
3_con_singledot,0.25,3,17,14,320,2,,,,3_con_singledot_image_56.png,56,202.49941760000002,202.74951178999999,,,,,1,1,2024-10-29_10h05.55.903,visual,2024.1.5,59.66419796104643,
6_con_totaldot,0.25,6,17,15,321,11,,,,6_con_totaldot_image_44.png,44,202.91608439999993,203.16611269000003,,,,,1,1,2024-10-29_10h05.55.903,visual,2024.1.5,59.66419796104643,
5_con_circum,0.25,5,17,16,322,16,,,,5_con_circum_image_31.png,31,203.31612100999996,203.56626019000004,,,,,1,1,2024-10-29_10h05.55.903,visual,2024.1.5,59.66419796104643,
1_con_circum,0.25,1,17,17,323,12,,,,1_con_circum_image_56.png,56,203.73278349999998,203.99961729,3.wav,204.0973793,13.mp4,204.0973793,1,1,2024-10-29_10h05.55.903,visual,2024.1.5,59.66419796104643,
3_con_totaldot,0.25,3,18,0,324,8,,,,3_con_totaldot_image_57.png,57,206.00467867999998,206.26294568999998,,,,,1,1,2024-10-29_10h05.55.903,visual,2024.1.5,59.66419796104643,
2_con_totaldot,0.25,2,18,1,325,7,,,,2_con_totaldot_image_23.png,23,206.41282141,206.66294208999994,,,,,1,1,2024-10-29_10h05.55.903,visual,2024.1.5,59.66419796104643,
4_con_circum,0.25,4,18,2,326,15,,,,4_con_circum_image_66.png,66,206.82962039999995,207.07968198999998,,,,,1,1,2024-10-29_10h05.55.903,visual,2024.1.5,59.66419796104643,
5_con_totaldot,0.25,5,18,3,327,10,,,,5_con_totaldot_image_15.png,15,207.22964090999994,207.48295118999994,,,,,1,1,2024-10-29_10h05.55.903,visual,2024.1.5,59.66419796104643,
2_con_singledot,0.25,2,18,4,328,1,,,,2_con_singledot_image_26.png,26,207.64660819999995,207.89660449000002,,,,,1,1,2024-10-29_10h05.55.903,visual,2024.1.5,59.66419796104643,
3_con_circum,0.25,3,18,5,329,14,,,,3_con_circum_image_49.png,49,208.0661126,208.32961279,,,,,1,1,2024-10-29_10h05.55.903,visual,2024.1.5,59.66419796104643,
3_con_singledot,0.25,3,18,6,330,2,,,,3_con_singledot_image_66.png,66,208.49622019999993,208.74623048999996,,,,,1,1,2024-10-29_10h05.55.903,visual,2024.1.5,59.66419796104643,
6_con_circum,0.25,6,18,7,331,17,,,,6_con_circum_image_25.png,25,208.91296139999997,209.16299658999998,,,,,1,1,2024-10-29_10h05.55.903,visual,2024.1.5,59.66419796104643,
5_con_circum,0.25,5,18,8,332,16,,,,5_con_circum_image_2.png,2,209.32963489999997,209.57974958999995,,,,,1,1,2024-10-29_10h05.55.903,visual,2024.1.5,59.66419796104643,
6_con_singledot,0.25,6,18,9,333,5,,,,6_con_singledot_image_39.png,39,209.7461627,209.99643598999995,,,,,1,1,2024-10-29_10h05.55.903,visual,2024.1.5,59.66419796104643,
6_con_totaldot,0.25,6,18,10,334,11,,,,6_con_totaldot_image_28.png,28,210.16284699999994,210.41616069000003,,,,,1,1,2024-10-29_10h05.55.903,visual,2024.1.5,59.66419796104643,
1_con_circum,0.25,1,18,11,335,12,,,,1_con_circum_image_15.png,15,210.57964659999993,210.82961588999996,,,,,1,1,2024-10-29_10h05.55.903,visual,2024.1.5,59.66419796104643,
1_con_totaldot,0.25,1,18,12,336,6,,,,1_con_totaldot_image_44.png,44,210.99627759999998,211.24655919000003,,,,,1,1,2024-10-29_10h05.55.903,visual,2024.1.5,59.66419796104643,
4_con_singledot,0.25,4,18,13,337,3,,,,4_con_singledot_image_50.png,50,211.4160528,211.66626178999996,,,,,1,1,2024-10-29_10h05.55.903,visual,2024.1.5,59.66419796104643,
1_con_singledot,0.25,1,18,14,338,0,,,,1_con_singledot_image_11.png,11,211.8298337,212.08291808999996,,,,,1,1,2024-10-29_10h05.55.903,visual,2024.1.5,59.66419796104643,
2_con_circum,0.25,2,18,15,339,13,,,,2_con_circum_image_64.png,64,212.24946849999992,212.50278858999997,,,,,1,1,2024-10-29_10h05.55.903,visual,2024.1.5,59.66419796104643,
4_con_totaldot,0.25,4,18,16,340,9,,,,4_con_totaldot_image_47.png,47,212.66938979999998,212.92955078999995,,,,,1,1,2024-10-29_10h05.55.903,visual,2024.1.5,59.66419796104643,
5_con_singledot,0.25,5,18,17,341,4,,,,5_con_singledot_image_31.png,31,213.0962879,213.34643038999997,3.wav,213.44729949999993,4.mp4,213.44729949999993,1,1,2024-10-29_10h05.55.903,visual,2024.1.5,59.66419796104643,
1_con_totaldot,0.25,1,19,0,342,6,,,,1_con_totaldot_image_64.png,64,215.37213027999996,215.62973458999994,,,,,1,1,2024-10-29_10h05.55.903,visual,2024.1.5,59.66419796104643,
6_con_singledot,0.25,6,19,1,343,5,,,,6_con_singledot_image_47.png,47,215.79936079999993,216.06307328999998,,,,,1,1,2024-10-29_10h05.55.903,visual,2024.1.5,59.66419796104643,
2_con_singledot,0.25,2,19,2,344,1,,,,2_con_singledot_image_2.png,2,216.2297512,216.48265979,,,,,1,1,2024-10-29_10h05.55.903,visual,2024.1.5,59.66419796104643,
3_con_circum,0.25,3,19,3,345,14,,,,3_con_circum_image_8.png,8,216.64933699999995,216.91626278999996,,,,,1,1,2024-10-29_10h05.55.903,visual,2024.1.5,59.66419796104643,
2_con_circum,0.25,2,19,4,346,13,,,,2_con_circum_image_19.png,19,217.0827372,217.33270449000003,,,,,1,1,2024-10-29_10h05.55.903,visual,2024.1.5,59.66419796104643,
4_con_circum,0.25,4,19,5,347,15,,,,4_con_circum_image_44.png,44,217.49934539999992,217.74957529,,,,,1,1,2024-10-29_10h05.55.903,visual,2024.1.5,59.66419796104643,
2_con_totaldot,0.25,2,19,6,348,7,,,,2_con_totaldot_image_9.png,9,217.91596879999997,218.16604608999995,,,,,1,1,2024-10-29_10h05.55.903,visual,2024.1.5,59.66419796104643,
3_con_totaldot,0.25,3,19,7,349,8,,,,3_con_totaldot_image_16.png,16,218.33267719999992,218.58278819000003,,,,,1,1,2024-10-29_10h05.55.903,visual,2024.1.5,59.66419796104643,
1_con_circum,0.25,1,19,8,350,12,,,,1_con_circum_image_19.png,19,218.7493422,218.99943178999996,,,,,1,1,2024-10-29_10h05.55.903,visual,2024.1.5,59.66419796104643,
5_con_totaldot,0.25,5,19,9,351,10,,,,5_con_totaldot_image_37.png,37,219.16325329999995,219.41312849000002,,,,,1,1,2024-10-29_10h05.55.903,visual,2024.1.5,59.66419796104643,
6_con_totaldot,0.25,6,19,10,352,11,,,,6_con_totaldot_image_55.png,55,219.58298649999995,219.83267128999995,,,,,1,1,2024-10-29_10h05.55.903,visual,2024.1.5,59.66419796104643,
4_con_totaldot,0.25,4,19,11,353,9,,,,4_con_totaldot_image_65.png,65,219.99941289999992,220.24938989000003,,,,,1,1,2024-10-29_10h05.55.903,visual,2024.1.5,59.66419796104643,
5_con_singledot,0.25,5,19,12,354,4,,,,5_con_singledot_image_10.png,10,220.413232,220.66601079000003,,,,,1,1,2024-10-29_10h05.55.903,visual,2024.1.5,59.66419796104643,
6_con_circum,0.25,6,19,13,355,17,,,,6_con_circum_image_44.png,44,220.83267419999993,221.08264129000003,,,,,1,1,2024-10-29_10h05.55.903,visual,2024.1.5,59.66419796104643,
3_con_singledot,0.25,3,19,14,356,2,,,,3_con_singledot_image_23.png,23,221.2493048,221.49935259,,,,,1,1,2024-10-29_10h05.55.903,visual,2024.1.5,59.66419796104643,
5_con_circum,0.25,5,19,15,357,16,,,,5_con_circum_image_37.png,37,221.6659902,221.92973019000004,,,,,1,1,2024-10-29_10h05.55.903,visual,2024.1.5,59.66419796104643,
4_con_singledot,0.25,4,19,16,358,3,,,,4_con_singledot_image_4.png,4,222.09933690000003,222.34935568999998,,,,,1,1,2024-10-29_10h05.55.903,visual,2024.1.5,59.66419796104643,
1_con_singledot,0.25,1,19,17,359,0,,,,1_con_singledot_image_6.png,6,222.51311449999992,222.76604178999997,4.wav,222.86768769999998,15.mp4,222.86768769999998,1,1,2024-10-29_10h05.55.903,visual,2024.1.5,59.66419796104643,
2_con_totaldot,0.25,2,20,0,360,7,,,,2_con_totaldot_image_7.png,7,224.77576837999993,225.02950058999994,,,,,1,1,2024-10-29_10h05.55.903,visual,2024.1.5,59.66419796104643,
6_con_circum,0.25,6,20,1,361,17,,,,6_con_circum_image_60.png,60,225.19610999999998,225.44623049,,,,,1,1,2024-10-29_10h05.55.903,visual,2024.1.5,59.66419796104643,
4_con_circum,0.25,4,20,2,362,15,,,,4_con_circum_image_52.png,52,225.61296749999997,225.86306639000003,,,,,1,1,2024-10-29_10h05.55.903,visual,2024.1.5,59.66419796104643,
1_con_totaldot,0.25,1,20,3,363,6,,,,1_con_totaldot_image_38.png,38,226.01300841,226.26607658999995,,,,,1,1,2024-10-29_10h05.55.903,visual,2024.1.5,59.66419796104643,
3_con_singledot,0.25,3,20,4,364,2,,,,3_con_singledot_image_17.png,17,226.42984919999992,226.67982859,,,,,1,1,2024-10-29_10h05.55.903,visual,2024.1.5,59.66419796104643,
5_con_totaldot,0.25,5,20,5,365,10,,,,5_con_totaldot_image_4.png,4,226.84934550000003,227.09942818999997,,,,,1,1,2024-10-29_10h05.55.903,visual,2024.1.5,59.66419796104643,
6_con_singledot,0.25,6,20,6,366,5,,,,6_con_singledot_image_67.png,67,227.2661134,227.51961679000004,,,,,1,1,2024-10-29_10h05.55.903,visual,2024.1.5,59.66419796104643,
3_con_totaldot,0.25,3,20,7,367,8,,,,3_con_totaldot_image_47.png,47,227.6797537,227.93268539000002,,,,,1,1,2024-10-29_10h05.55.903,visual,2024.1.5,59.66419796104643,
6_con_totaldot,0.25,6,20,8,368,11,,,,6_con_totaldot_image_68.png,68,228.09937029999992,228.34934999,,,,,1,1,2024-10-29_10h05.55.903,visual,2024.1.5,59.66419796104643,
4_con_singledot,0.25,4,20,9,369,3,,,,4_con_singledot_image_24.png,24,228.51600229999997,228.76597438999994,,,,,1,1,2024-10-29_10h05.55.903,visual,2024.1.5,59.66419796104643,
5_con_circum,0.25,5,20,10,370,16,,,,5_con_circum_image_18.png,18,228.9327548,229.18270278999995,,,,,1,1,2024-10-29_10h05.55.903,visual,2024.1.5,59.66419796104643,
2_con_singledot,0.25,2,20,11,371,1,,,,2_con_singledot_image_23.png,23,229.34648299999992,229.60269238999996,,,,,1,1,2024-10-29_10h05.55.903,visual,2024.1.5,59.66419796104643,
4_con_totaldot,0.25,4,20,12,372,9,,,,4_con_totaldot_image_24.png,24,229.74605291,229.99611579000003,,,,,1,1,2024-10-29_10h05.55.903,visual,2024.1.5,59.66419796104643,
2_con_circum,0.25,2,20,13,373,13,,,,2_con_circum_image_18.png,18,230.16271799999993,230.41280708999994,,,,,1,1,2024-10-29_10h05.55.903,visual,2024.1.5,59.66419796104643,
1_con_circum,0.25,1,20,14,374,12,,,,1_con_circum_image_1.png,1,230.57971550000002,230.82948309,,,,,1,1,2024-10-29_10h05.55.903,visual,2024.1.5,59.66419796104643,
1_con_singledot,0.25,1,20,15,375,0,,,,1_con_singledot_image_38.png,38,230.97935830999995,231.22943599,,,,,1,1,2024-10-29_10h05.55.903,visual,2024.1.5,59.66419796104643,
3_con_circum,0.25,3,20,16,376,14,,,,3_con_circum_image_53.png,53,231.3960773,231.64614119000004,,,,,1,1,2024-10-29_10h05.55.903,visual,2024.1.5,59.66419796104643,
5_con_singledot,0.25,5,20,17,377,4,,,,5_con_singledot_image_28.png,28,231.81277939999995,232.06281379,3.wav,232.16374849999994,5.mp4,232.16374849999994,1,1,2024-10-29_10h05.55.903,visual,2024.1.5,59.66419796104643,
1_con_totaldot,0.25,1,21,0,378,6,,,,1_con_totaldot_image_27.png,27,234.06251717999987,234.31607148999996,,,,,1,1,2024-10-29_10h05.55.903,visual,2024.1.5,59.66419796104643,
6_con_circum,0.25,6,21,1,379,17,,,,6_con_circum_image_11.png,11,234.47966079999992,234.72971868999997,,,,,1,1,2024-10-29_10h05.55.903,visual,2024.1.5,59.66419796104643,
5_con_totaldot,0.25,5,21,2,380,10,,,,5_con_totaldot_image_42.png,42,234.89624159999994,235.14925659,,,,,1,1,2024-10-29_10h05.55.903,visual,2024.1.5,59.66419796104643,
2_con_totaldot,0.25,2,21,3,381,7,,,,2_con_totaldot_image_37.png,37,235.3159111,235.56599089000002,,,,,1,1,2024-10-29_10h05.55.903,visual,2024.1.5,59.66419796104643,
6_con_singledot,0.25,6,21,4,382,5,,,,6_con_singledot_image_38.png,38,235.73266999999998,235.98280348999998,,,,,1,1,2024-10-29_10h05.55.903,visual,2024.1.5,59.66419796104643,
1_con_circum,0.25,1,21,5,383,12,,,,1_con_circum_image_29.png,29,236.14634639999997,236.40273368999993,,,,,1,1,2024-10-29_10h05.55.903,visual,2024.1.5,59.66419796104643,
4_con_totaldot,0.25,4,21,6,384,9,,,,4_con_totaldot_image_60.png,60,236.56960049999998,236.82970679,,,,,1,1,2024-10-29_10h05.55.903,visual,2024.1.5,59.66419796104643,
3_con_singledot,0.25,3,21,7,385,2,,,,3_con_singledot_image_25.png,25,236.9992208,237.24935628999998,,,,,1,1,2024-10-29_10h05.55.903,visual,2024.1.5,59.66419796104643,
1_con_singledot,0.25,1,21,8,386,0,,,,1_con_singledot_image_15.png,15,237.4158741,237.66584569000003,,,,,1,1,2024-10-29_10h05.55.903,visual,2024.1.5,59.66419796104643,
3_con_totaldot,0.25,3,21,9,387,8,,,,3_con_totaldot_image_44.png,44,237.81290601,238.06605298999995,,,,,1,1,2024-10-29_10h05.55.903,visual,2024.1.5,59.66419796104643,
4_con_singledot,0.25,4,21,10,388,3,,,,4_con_singledot_image_30.png,30,238.24623509000003,238.49634788999998,,,,,1,1,2024-10-29_10h05.55.903,visual,2024.1.5,59.66419796104643,
3_con_circum,0.25,3,21,11,389,14,,,,3_con_circum_image_54.png,54,238.6660832,238.91593858999994,,,,,1,1,2024-10-29_10h05.55.903,visual,2024.1.5,59.66419796104643,
2_con_circum,0.25,2,21,12,390,13,,,,2_con_circum_image_3.png,3,239.08252029999994,239.33257958999997,,,,,1,1,2024-10-29_10h05.55.903,visual,2024.1.5,59.66419796104643,
6_con_totaldot,0.25,6,21,13,391,11,,,,6_con_totaldot_image_15.png,15,239.4992115,239.74930008999996,,,,,1,1,2024-10-29_10h05.55.903,visual,2024.1.5,59.66419796104643,
2_con_singledot,0.25,2,21,14,392,1,,,,2_con_singledot_image_69.png,69,239.91596700000002,240.18262349000003,,,,,1,1,2024-10-29_10h05.55.903,visual,2024.1.5,59.66419796104643,
4_con_circum,0.25,4,21,15,393,15,,,,4_con_circum_image_14.png,14,240.3493558,240.61298099000004,,,,,1,1,2024-10-29_10h05.55.903,visual,2024.1.5,59.66419796104643,
5_con_circum,0.25,5,21,16,394,16,,,,5_con_circum_image_42.png,42,240.7796095,241.03263228999998,,,,,1,1,2024-10-29_10h05.55.903,visual,2024.1.5,59.66419796104643,
5_con_singledot,0.25,5,21,17,395,4,,,,5_con_singledot_image_39.png,39,241.1992212,241.44924489,1.wav,241.55016970000003,13.mp4,241.55016970000003,1,1,2024-10-29_10h05.55.903,visual,2024.1.5,59.66419796104643,
4_con_totaldot,0.25,4,22,0,396,9,,,,4_con_totaldot_image_69.png,69,243.48073147999992,243.74620768999995,,,,,1,1,2024-10-29_10h05.55.903,visual,2024.1.5,59.66419796104643,
1_con_circum,0.25,1,22,1,397,12,,,,1_con_circum_image_60.png,60,243.92934518999994,244.17951968999995,,,,,1,1,2024-10-29_10h05.55.903,visual,2024.1.5,59.66419796104643,
3_con_circum,0.25,3,22,2,398,14,,,,3_con_circum_image_34.png,34,244.34620759999996,244.59614418999996,,,,,1,1,2024-10-29_10h05.55.903,visual,2024.1.5,59.66419796104643,
3_con_totaldot,0.25,3,22,3,399,8,,,,3_con_totaldot_image_64.png,64,244.7627605,245.01275569,,,,,1,1,2024-10-29_10h05.55.903,visual,2024.1.5,59.66419796104643,
3_con_singledot,0.25,3,22,4,400,2,,,,3_con_singledot_image_61.png,61,245.17941329999996,245.43253338999995,,,,,1,1,2024-10-29_10h05.55.903,visual,2024.1.5,59.66419796104643,
2_con_totaldot,0.25,2,22,5,401,7,,,,2_con_totaldot_image_22.png,22,245.59940740000002,245.84947409,,,,,1,1,2024-10-29_10h05.55.903,visual,2024.1.5,59.66419796104643,
2_con_circum,0.25,2,22,6,402,13,,,,2_con_circum_image_56.png,56,246.01604450000002,246.26628689,,,,,1,1,2024-10-29_10h05.55.903,visual,2024.1.5,59.66419796104643,
6_con_circum,0.25,6,22,7,403,17,,,,6_con_circum_image_47.png,47,246.4329361,246.68280849,,,,,1,1,2024-10-29_10h05.55.903,visual,2024.1.5,59.66419796104643,
4_con_singledot,0.25,4,22,8,404,3,,,,4_con_singledot_image_63.png,63,246.83277670999996,247.08588288999994,,,,,1,1,2024-10-29_10h05.55.903,visual,2024.1.5,59.66419796104643,
5_con_circum,0.25,5,22,9,405,16,,,,5_con_circum_image_69.png,69,247.23588021,247.49604399000003,,,,,1,1,2024-10-29_10h05.55.903,visual,2024.1.5,59.66419796104643,
6_con_totaldot,0.25,6,22,10,406,11,,,,6_con_totaldot_image_13.png,13,247.66264999999999,247.91272179000003,,,,,1,1,2024-10-29_10h05.55.903,visual,2024.1.5,59.66419796104643,
5_con_singledot,0.25,5,22,11,407,4,,,,5_con_singledot_image_36.png,36,248.0793291,248.32935378999997,,,,,1,1,2024-10-29_10h05.55.903,visual,2024.1.5,59.66419796104643,
6_con_singledot,0.25,6,22,12,408,5,,,,6_con_singledot_image_51.png,51,248.4960582,248.74598868999993,,,,,1,1,2024-10-29_10h05.55.903,visual,2024.1.5,59.66419796104643,
1_con_totaldot,0.25,1,22,13,409,6,,,,1_con_totaldot_image_32.png,32,248.89616620999993,249.14610438999995,,,,,1,1,2024-10-29_10h05.55.903,visual,2024.1.5,59.66419796104643,
5_con_totaldot,0.25,5,22,14,410,10,,,,5_con_totaldot_image_32.png,32,249.29602020999994,249.54611288999996,,,,,1,1,2024-10-29_10h05.55.903,visual,2024.1.5,59.66419796104643,
1_con_singledot,0.25,1,22,15,411,0,,,,1_con_singledot_image_56.png,56,249.7127296,249.96299748999996,,,,,1,1,2024-10-29_10h05.55.903,visual,2024.1.5,59.66419796104643,
2_con_singledot,0.25,2,22,16,412,1,,,,2_con_singledot_image_46.png,46,250.12960320000002,250.37966589,,,,,1,1,2024-10-29_10h05.55.903,visual,2024.1.5,59.66419796104643,
4_con_circum,0.25,4,22,17,413,15,,,,4_con_circum_image_10.png,10,250.54627069999992,250.79635048999995,5.wav,250.89730660000004,14.mp4,250.89730660000004,1,1,2024-10-29_10h05.55.903,visual,2024.1.5,59.66419796104643,
3_con_circum,0.25,3,23,0,414,14,,,,3_con_circum_image_51.png,51,252.80899657999987,253.06266868999995,,,,,1,1,2024-10-29_10h05.55.903,visual,2024.1.5,59.66419796104643,
5_con_totaldot,0.25,5,23,1,415,10,,,,5_con_totaldot_image_35.png,35,253.24594069,253.49613539,,,,,1,1,2024-10-29_10h05.55.903,visual,2024.1.5,59.66419796104643,
1_con_totaldot,0.25,1,23,2,416,6,,,,1_con_totaldot_image_30.png,30,253.66273849999993,253.91274778999997,,,,,1,1,2024-10-29_10h05.55.903,visual,2024.1.5,59.66419796104643,
2_con_singledot,0.25,2,23,3,417,1,,,,2_con_singledot_image_3.png,3,254.07930090000002,254.33282989000003,,,,,1,1,2024-10-29_10h05.55.903,visual,2024.1.5,59.66419796104643,
6_con_singledot,0.25,6,23,4,418,5,,,,6_con_singledot_image_65.png,65,254.4962825,254.74601378999995,,,,,1,1,2024-10-29_10h05.55.903,visual,2024.1.5,59.66419796104643,
3_con_singledot,0.25,3,23,5,419,2,,,,3_con_singledot_image_37.png,37,254.91264379999996,255.16281709000003,,,,,1,1,2024-10-29_10h05.55.903,visual,2024.1.5,59.66419796104643,
1_con_singledot,0.25,1,23,6,420,0,,,,1_con_singledot_image_60.png,60,255.3294403,255.57933998999994,,,,,1,1,2024-10-29_10h05.55.903,visual,2024.1.5,59.66419796104643,
4_con_circum,0.25,4,23,7,421,15,,,,4_con_circum_image_31.png,31,255.74614099999997,255.99600759000003,,,,,1,1,2024-10-29_10h05.55.903,visual,2024.1.5,59.66419796104643,
5_con_singledot,0.25,5,23,8,422,4,,,,5_con_singledot_image_19.png,19,256.16340819999994,256.41266869,,,,,1,1,2024-10-29_10h05.55.903,visual,2024.1.5,59.66419796104643,
3_con_totaldot,0.25,3,23,9,423,8,,,,3_con_totaldot_image_68.png,68,256.56258460999993,256.81282929,,,,,1,1,2024-10-29_10h05.55.903,visual,2024.1.5,59.66419796104643,
1_con_circum,0.25,1,23,10,424,12,,,,1_con_circum_image_28.png,28,256.97930899999994,257.23262529000004,,,,,1,1,2024-10-29_10h05.55.903,visual,2024.1.5,59.66419796104643,
5_con_circum,0.25,5,23,11,425,16,,,,5_con_circum_image_10.png,10,257.39624449999997,257.64927439,,,,,1,1,2024-10-29_10h05.55.903,visual,2024.1.5,59.66419796104643,
2_con_circum,0.25,2,23,12,426,13,,,,2_con_circum_image_1.png,1,257.81594989999996,258.07966288999995,,,,,1,1,2024-10-29_10h05.55.903,visual,2024.1.5,59.66419796104643,
2_con_totaldot,0.25,2,23,13,427,7,,,,2_con_totaldot_image_62.png,62,258.2462049999999,258.49948319000003,,,,,1,1,2024-10-29_10h05.55.903,visual,2024.1.5,59.66419796104643,
4_con_singledot,0.25,4,23,14,428,3,,,,4_con_singledot_image_14.png,14,258.6629828,258.91933468999997,,,,,1,1,2024-10-29_10h05.55.903,visual,2024.1.5,59.66419796104643,
4_con_totaldot,0.25,4,23,15,429,9,,,,4_con_totaldot_image_26.png,26,259.0797275,259.33245249,,,,,1,1,2024-10-29_10h05.55.903,visual,2024.1.5,59.66419796104643,
6_con_circum,0.25,6,23,16,430,17,,,,6_con_circum_image_70.png,70,259.4961393,259.74924559000004,,,,,1,1,2024-10-29_10h05.55.903,visual,2024.1.5,59.66419796104643,
6_con_totaldot,0.25,6,23,17,431,11,,,,6_con_totaldot_image_42.png,42,259.9158069,260.17959569,4.wav,260.2828592,1.mp4,260.2828592,1,1,2024-10-29_10h05.55.903,visual,2024.1.5,59.66419796104643,
5_con_circum,0.25,5,24,0,432,16,,,,5_con_circum_image_45.png,45,262.2211047799999,262.47927698999996,,,,,1,1,2024-10-29_10h05.55.903,visual,2024.1.5,59.66419796104643,
4_con_totaldot,0.25,4,24,1,433,9,,,,4_con_totaldot_image_3.png,3,262.64735669999993,262.91257399,,,,,1,1,2024-10-29_10h05.55.903,visual,2024.1.5,59.66419796104643,
5_con_totaldot,0.25,5,24,2,434,10,,,,5_con_totaldot_image_64.png,64,263.06253541,263.31265029,,,,,1,1,2024-10-29_10h05.55.903,visual,2024.1.5,59.66419796104643,
2_con_singledot,0.25,2,24,3,435,1,,,,2_con_singledot_image_37.png,37,263.47930759999997,263.72931789,,,,,1,1,2024-10-29_10h05.55.903,visual,2024.1.5,59.66419796104643,
4_con_singledot,0.25,4,24,4,436,3,,,,4_con_singledot_image_29.png,29,263.88265741,264.13273108999994,,,,,1,1,2024-10-29_10h05.55.903,visual,2024.1.5,59.66419796104643,
4_con_circum,0.25,4,24,5,437,15,,,,4_con_circum_image_18.png,18,264.29928299999995,264.56593699,,,,,1,1,2024-10-29_10h05.55.903,visual,2024.1.5,59.66419796104643,
1_con_totaldot,0.25,1,24,6,438,6,,,,1_con_totaldot_image_8.png,8,264.7325624,264.98585789,,,,,1,1,2024-10-29_10h05.55.903,visual,2024.1.5,59.66419796104643,
6_con_totaldot,0.25,6,24,7,439,11,,,,6_con_totaldot_image_8.png,8,265.1461123,265.39609239,,,,,1,1,2024-10-29_10h05.55.903,visual,2024.1.5,59.66419796104643,
1_con_singledot,0.25,1,24,8,440,0,,,,1_con_singledot_image_45.png,45,265.5625602,265.81269478999997,,,,,1,1,2024-10-29_10h05.55.903,visual,2024.1.5,59.66419796104643,
5_con_singledot,0.25,5,24,9,441,4,,,,5_con_singledot_image_25.png,25,265.9792053,266.22924858999994,,,,,1,1,2024-10-29_10h05.55.903,visual,2024.1.5,59.66419796104643,
6_con_singledot,0.25,6,24,10,442,5,,,,6_con_singledot_image_29.png,29,266.3959175,266.64594499000003,,,,,1,1,2024-10-29_10h05.55.903,visual,2024.1.5,59.66419796104643,
3_con_circum,0.25,3,24,11,443,14,,,,3_con_circum_image_58.png,58,266.81250279999995,267.06279178999995,,,,,1,1,2024-10-29_10h05.55.903,visual,2024.1.5,59.66419796104643,
3_con_singledot,0.25,3,24,12,444,2,,,,3_con_singledot_image_53.png,53,267.22942939999996,267.47930139,,,,,1,1,2024-10-29_10h05.55.903,visual,2024.1.5,59.66419796104643,
2_con_circum,0.25,2,24,13,445,13,,,,2_con_circum_image_67.png,67,267.6458981999999,267.89622109,,,,,1,1,2024-10-29_10h05.55.903,visual,2024.1.5,59.66419796104643,
1_con_circum,0.25,1,24,14,446,12,,,,1_con_circum_image_63.png,63,268.06582149999997,268.31601419,,,,,1,1,2024-10-29_10h05.55.903,visual,2024.1.5,59.66419796104643,
6_con_circum,0.25,6,24,15,447,17,,,,6_con_circum_image_55.png,55,268.48246199999994,268.73615129,,,,,1,1,2024-10-29_10h05.55.903,visual,2024.1.5,59.66419796104643,
3_con_totaldot,0.25,3,24,16,448,8,,,,3_con_totaldot_image_30.png,30,268.89640729999996,269.14951869,,,,,1,1,2024-10-29_10h05.55.903,visual,2024.1.5,59.66419796104643,
2_con_totaldot,0.25,2,24,17,449,7,,,,2_con_totaldot_image_8.png,8,269.31565809999995,269.56569498999994,3.wav,269.6663551,1.mp4,269.6663551,1,1,2024-10-29_10h05.55.903,visual,2024.1.5,59.66419796104643,
3_con_circum,0.25,3,25,0,450,14,,,,3_con_circum_image_15.png,15,271.5527298899999,271.81256178999996,,,,,1,1,2024-10-29_10h05.55.903,visual,2024.1.5,59.66419796104643,
2_con_circum,0.25,2,25,1,451,13,,,,2_con_circum_image_66.png,66,271.9791784,272.22932428999997,,,,,1,1,2024-10-29_10h05.55.903,visual,2024.1.5,59.66419796104643,
1_con_circum,0.25,1,25,2,452,12,,,,1_con_circum_image_30.png,30,272.395931,272.64597319,,,,,1,1,2024-10-29_10h05.55.903,visual,2024.1.5,59.66419796104643,
4_con_totaldot,0.25,4,25,3,453,9,,,,4_con_totaldot_image_6.png,6,272.812601,273.06257438999995,,,,,1,1,2024-10-29_10h05.55.903,visual,2024.1.5,59.66419796104643,
5_con_singledot,0.25,5,25,4,454,4,,,,5_con_singledot_image_8.png,8,273.22919289999993,273.48239879,,,,,1,1,2024-10-29_10h05.55.903,visual,2024.1.5,59.66419796104643,
5_con_circum,0.25,5,25,5,455,16,,,,5_con_circum_image_58.png,58,273.64904219999994,273.91570819,,,,,1,1,2024-10-29_10h05.55.903,visual,2024.1.5,59.66419796104643,
4_con_circum,0.25,4,25,6,456,15,,,,4_con_circum_image_13.png,13,274.0824487,274.33261938999993,,,,,1,1,2024-10-29_10h05.55.903,visual,2024.1.5,59.66419796104643,
6_con_singledot,0.25,6,25,7,457,5,,,,6_con_singledot_image_35.png,35,274.49623199999996,274.74946569,,,,,1,1,2024-10-29_10h05.55.903,visual,2024.1.5,59.66419796104643,
3_con_singledot,0.25,3,25,8,458,2,,,,3_con_singledot_image_9.png,9,274.91579809999996,275.16922679,,,,,1,1,2024-10-29_10h05.55.903,visual,2024.1.5,59.66419796104643,
6_con_totaldot,0.25,6,25,9,459,11,,,,6_con_totaldot_image_49.png,49,275.3358601,275.59610478999997,,,,,1,1,2024-10-29_10h05.55.903,visual,2024.1.5,59.66419796104643,
3_con_totaldot,0.25,3,25,10,460,8,,,,3_con_totaldot_image_12.png,12,275.7627175,276.01579768999994,,,,,1,1,2024-10-29_10h05.55.903,visual,2024.1.5,59.66419796104643,
5_con_totaldot,0.25,5,25,11,461,10,,,,5_con_totaldot_image_31.png,31,276.1793756999999,276.42943479,,,,,1,1,2024-10-29_10h05.55.903,visual,2024.1.5,59.66419796104643,
6_con_circum,0.25,6,25,12,462,17,,,,6_con_circum_image_63.png,63,276.59915639999997,276.84918508999993,,,,,1,1,2024-10-29_10h05.55.903,visual,2024.1.5,59.66419796104643,
4_con_singledot,0.25,4,25,13,463,3,,,,4_con_singledot_image_5.png,5,277.01274119999994,277.26292669000003,,,,,1,1,2024-10-29_10h05.55.903,visual,2024.1.5,59.66419796104643,
1_con_singledot,0.25,1,25,14,464,0,,,,1_con_singledot_image_43.png,43,277.429538,277.67949629000003,,,,,1,1,2024-10-29_10h05.55.903,visual,2024.1.5,59.66419796104643,
2_con_totaldot,0.25,2,25,15,465,7,,,,2_con_totaldot_image_28.png,28,277.84610539999994,278.09587039,,,,,1,1,2024-10-29_10h05.55.903,visual,2024.1.5,59.66419796104643,
1_con_totaldot,0.25,1,25,16,466,6,,,,1_con_totaldot_image_33.png,33,278.24580411,278.49607939000003,,,,,1,1,2024-10-29_10h05.55.903,visual,2024.1.5,59.66419796104643,
2_con_singledot,0.25,2,25,17,467,1,,,,2_con_singledot_image_56.png,56,278.6627595,278.91247539,2.wav,279.01420449999995,4.mp4,279.01420449999995,1,1,2024-10-29_10h05.55.903,visual,2024.1.5,59.66419796104643,
5_con_totaldot,0.25,5,26,0,468,10,,,,5_con_totaldot_image_22.png,22,280.93234057999996,281.18229859,,,,,1,1,2024-10-29_10h05.55.903,visual,2024.1.5,59.66419796104643,
4_con_singledot,0.25,4,26,1,469,3,,,,4_con_singledot_image_48.png,48,281.3490994,281.59914849,,,,,1,1,2024-10-29_10h05.55.903,visual,2024.1.5,59.66419796104643,
5_con_circum,0.25,5,26,2,470,16,,,,5_con_circum_image_50.png,50,281.7627142,282.01578749000004,,,,,1,1,2024-10-29_10h05.55.903,visual,2024.1.5,59.66419796104643,
6_con_singledot,0.25,6,26,3,471,5,,,,6_con_singledot_image_30.png,30,282.17943719999994,282.42972359000004,,,,,1,1,2024-10-29_10h05.55.903,visual,2024.1.5,59.66419796104643,
3_con_totaldot,0.25,3,26,4,472,8,,,,3_con_totaldot_image_54.png,54,282.60245469999995,282.86564049,,,,,1,1,2024-10-29_10h05.55.903,visual,2024.1.5,59.66419796104643,
1_con_totaldot,0.25,1,26,5,473,6,,,,1_con_totaldot_image_26.png,26,283.03237949999993,283.28240319,,,,,1,1,2024-10-29_10h05.55.903,visual,2024.1.5,59.66419796104643,
2_con_circum,0.25,2,26,6,474,13,,,,2_con_circum_image_34.png,34,283.4459787999999,283.69603838999996,,,,,1,1,2024-10-29_10h05.55.903,visual,2024.1.5,59.66419796104643,
1_con_singledot,0.25,1,26,7,475,0,,,,1_con_singledot_image_63.png,63,283.8655718,284.12953949,,,,,1,1,2024-10-29_10h05.55.903,visual,2024.1.5,59.66419796104643,
6_con_totaldot,0.25,6,26,8,476,11,,,,6_con_totaldot_image_31.png,31,284.29603069999996,284.54604708999995,,,,,1,1,2024-10-29_10h05.55.903,visual,2024.1.5,59.66419796104643,
4_con_totaldot,0.25,4,26,9,477,9,,,,4_con_totaldot_image_43.png,43,284.73220969,284.98231269,,,,,1,1,2024-10-29_10h05.55.903,visual,2024.1.5,59.66419796104643,
3_con_circum,0.25,3,26,10,478,14,,,,3_con_circum_image_21.png,21,285.12943261,285.37941558999995,,,,,1,1,2024-10-29_10h05.55.903,visual,2024.1.5,59.66419796104643,
4_con_circum,0.25,4,26,11,479,15,,,,4_con_circum_image_38.png,38,285.5489609,285.79906149000004,,,,,1,1,2024-10-29_10h05.55.903,visual,2024.1.5,59.66419796104643,
2_con_totaldot,0.25,2,26,12,480,7,,,,2_con_totaldot_image_57.png,57,285.96269229999996,286.21571478999994,,,,,1,1,2024-10-29_10h05.55.903,visual,2024.1.5,59.66419796104643,
5_con_singledot,0.25,5,26,13,481,4,,,,5_con_singledot_image_5.png,5,286.382289,286.63601649000003,,,,,1,1,2024-10-29_10h05.55.903,visual,2024.1.5,59.66419796104643,
1_con_circum,0.25,1,26,14,482,12,,,,1_con_circum_image_33.png,33,286.7962461999999,287.04910308999996,,,,,1,1,2024-10-29_10h05.55.903,visual,2024.1.5,59.66419796104643,
6_con_circum,0.25,6,26,15,483,17,,,,6_con_circum_image_38.png,38,287.2156583,287.48233719,,,,,1,1,2024-10-29_10h05.55.903,visual,2024.1.5,59.66419796104643,
2_con_singledot,0.25,2,26,16,484,1,,,,2_con_singledot_image_18.png,18,287.64598279999996,287.89892248999996,,,,,1,1,2024-10-29_10h05.55.903,visual,2024.1.5,59.66419796104643,
3_con_singledot,0.25,3,26,17,485,2,,,,3_con_singledot_image_28.png,28,288.04895571,288.29901438999997,3.wav,288.39993069999997,1.mp4,288.39993069999997,1,1,2024-10-29_10h05.55.903,visual,2024.1.5,59.66419796104643,
5_con_circum,0.25,5,27,0,486,16,,,,5_con_circum_image_29.png,29,290.3089835799999,290.56244479000003,,,,,1,1,2024-10-29_10h05.55.903,visual,2024.1.5,59.66419796104643,
4_con_totaldot,0.25,4,27,1,487,9,,,,4_con_totaldot_image_14.png,14,290.7290551,290.97919239000004,,,,,1,1,2024-10-29_10h05.55.903,visual,2024.1.5,59.66419796104643,
2_con_totaldot,0.25,2,27,2,488,7,,,,2_con_totaldot_image_58.png,58,291.14587459999996,291.39587319000003,,,,,1,1,2024-10-29_10h05.55.903,visual,2024.1.5,59.66419796104643,
4_con_singledot,0.25,4,27,3,489,3,,,,4_con_singledot_image_38.png,38,291.54585031,291.79587549,,,,,1,1,2024-10-29_10h05.55.903,visual,2024.1.5,59.66419796104643,
2_con_singledot,0.25,2,27,4,490,1,,,,2_con_singledot_image_70.png,70,291.96250729999997,292.21268148999997,,,,,1,1,2024-10-29_10h05.55.903,visual,2024.1.5,59.66419796104643,
2_con_circum,0.25,2,27,5,491,13,,,,2_con_circum_image_39.png,39,292.3822242,292.63231208999997,,,,,1,1,2024-10-29_10h05.55.903,visual,2024.1.5,59.66419796104643,
3_con_singledot,0.25,3,27,6,492,2,,,,3_con_singledot_image_62.png,62,292.7959767,293.04895418999996,,,,,1,1,2024-10-29_10h05.55.903,visual,2024.1.5,59.66419796104643,
1_con_totaldot,0.25,1,27,7,493,6,,,,1_con_totaldot_image_57.png,57,293.21559189999994,293.46561059000004,,,,,1,1,2024-10-29_10h05.55.903,visual,2024.1.5,59.66419796104643,
1_con_circum,0.25,1,27,8,494,12,,,,1_con_circum_image_65.png,65,293.6126490099999,293.86562079000004,,,,,1,1,2024-10-29_10h05.55.903,visual,2024.1.5,59.66419796104643,
5_con_singledot,0.25,5,27,9,495,4,,,,5_con_singledot_image_54.png,54,294.0322155,294.30222828999996,,,,,1,1,2024-10-29_10h05.55.903,visual,2024.1.5,59.66419796104643,
3_con_circum,0.25,3,27,10,496,14,,,,3_con_circum_image_6.png,6,294.4691828,294.72906869,,,,,1,1,2024-10-29_10h05.55.903,visual,2024.1.5,59.66419796104643,
5_con_totaldot,0.25,5,27,11,497,10,,,,5_con_totaldot_image_16.png,16,294.8957652,295.14574219,,,,,1,1,2024-10-29_10h05.55.903,visual,2024.1.5,59.66419796104643,
6_con_singledot,0.25,6,27,12,498,5,,,,6_con_singledot_image_20.png,20,295.31240159999993,295.56238949000004,,,,,1,1,2024-10-29_10h05.55.903,visual,2024.1.5,59.66419796104643,
1_con_singledot,0.25,1,27,13,499,0,,,,1_con_singledot_image_21.png,21,295.71235901,295.96243709000004,,,,,1,1,2024-10-29_10h05.55.903,visual,2024.1.5,59.66419796104643,
3_con_totaldot,0.25,3,27,14,500,8,,,,3_con_totaldot_image_37.png,37,296.1290888,296.37911389000004,,,,,1,1,2024-10-29_10h05.55.903,visual,2024.1.5,59.66419796104643,
4_con_circum,0.25,4,27,15,501,15,,,,4_con_circum_image_36.png,36,296.5457762,296.79587349,,,,,1,1,2024-10-29_10h05.55.903,visual,2024.1.5,59.66419796104643,
6_con_totaldot,0.25,6,27,16,502,11,,,,6_con_totaldot_image_1.png,1,296.9624335,297.21269508999995,,,,,1,1,2024-10-29_10h05.55.903,visual,2024.1.5,59.66419796104643,
6_con_circum,0.25,6,27,17,503,17,,,,6_con_circum_image_32.png,32,297.3823168,297.63230258999994,2.wav,297.7330721,14.mp4,297.7330721,1,1,2024-10-29_10h05.55.903,visual,2024.1.5,59.66419796104643,
5_con_circum,0.25,5,28,0,504,16,,,,5_con_circum_image_48.png,48,299.6393036799999,299.89570998999994,,,,,1,1,2024-10-29_10h05.55.903,visual,2024.1.5,59.66419796104643,
2_con_circum,0.25,2,28,1,505,13,,,,2_con_circum_image_68.png,68,300.06234099999995,300.31251148999996,,,,,1,1,2024-10-29_10h05.55.903,visual,2024.1.5,59.66419796104643,
4_con_circum,0.25,4,28,2,506,15,,,,4_con_circum_image_70.png,70,300.47912539999993,300.72915528999994,,,,,1,1,2024-10-29_10h05.55.903,visual,2024.1.5,59.66419796104643,
1_con_totaldot,0.25,1,28,3,507,6,,,,1_con_totaldot_image_20.png,20,300.8959141,301.14908168999995,,,,,1,1,2024-10-29_10h05.55.903,visual,2024.1.5,59.66419796104643,
5_con_totaldot,0.25,5,28,4,508,10,,,,5_con_totaldot_image_36.png,36,301.31570539999996,301.56579399000003,,,,,1,1,2024-10-29_10h05.55.903,visual,2024.1.5,59.66419796104643,
2_con_totaldot,0.25,2,28,5,509,7,,,,2_con_totaldot_image_39.png,39,301.7292383,301.98585419,,,,,1,1,2024-10-29_10h05.55.903,visual,2024.1.5,59.66419796104643,
6_con_circum,0.25,6,28,6,510,17,,,,6_con_circum_image_33.png,33,302.14562739999997,302.39575689,,,,,1,1,2024-10-29_10h05.55.903,visual,2024.1.5,59.66419796104643,
6_con_totaldot,0.25,6,28,7,511,11,,,,6_con_totaldot_image_12.png,12,302.56236679999995,302.81241888999995,,,,,1,1,2024-10-29_10h05.55.903,visual,2024.1.5,59.66419796104643,
4_con_singledot,0.25,4,28,8,512,3,,,,4_con_singledot_image_36.png,36,302.9790134,303.22913438999996,,,,,1,1,2024-10-29_10h05.55.903,visual,2024.1.5,59.66419796104643,
3_con_singledot,0.25,3,28,9,513,2,,,,3_con_singledot_image_38.png,38,303.37904051,303.62901109,,,,,1,1,2024-10-29_10h05.55.903,visual,2024.1.5,59.66419796104643,
3_con_circum,0.25,3,28,10,514,14,,,,3_con_circum_image_5.png,5,303.795665,304.04595989,,,,,1,1,2024-10-29_10h05.55.903,visual,2024.1.5,59.66419796104643,
4_con_totaldot,0.25,4,28,11,515,9,,,,4_con_totaldot_image_23.png,23,304.21256819999996,304.46567938999993,,,,,1,1,2024-10-29_10h05.55.903,visual,2024.1.5,59.66419796104643,
5_con_singledot,0.25,5,28,12,516,4,,,,5_con_singledot_image_16.png,16,304.6324359,304.88229119,,,,,1,1,2024-10-29_10h05.55.903,visual,2024.1.5,59.66419796104643,
1_con_singledot,0.25,1,28,13,517,0,,,,1_con_singledot_image_16.png,16,305.03227130999994,305.29901018999993,,,,,1,1,2024-10-29_10h05.55.903,visual,2024.1.5,59.66419796104643,
3_con_totaldot,0.25,3,28,14,518,8,,,,3_con_totaldot_image_22.png,22,305.4656219,305.71580138999997,,,,,1,1,2024-10-29_10h05.55.903,visual,2024.1.5,59.66419796104643,
2_con_singledot,0.25,2,28,15,519,1,,,,2_con_singledot_image_15.png,15,305.87946709999994,306.13563959000004,,,,,1,1,2024-10-29_10h05.55.903,visual,2024.1.5,59.66419796104643,
1_con_circum,0.25,1,28,16,520,12,,,,1_con_circum_image_27.png,27,306.3026053,306.56553259000003,,,,,1,1,2024-10-29_10h05.55.903,visual,2024.1.5,59.66419796104643,
6_con_singledot,0.25,6,28,17,521,5,,,,6_con_singledot_image_10.png,10,306.71253071,306.96261529,2.wav,307.06389210000003,5.mp4,307.06389210000003,1,1,2024-10-29_10h05.55.903,visual,2024.1.5,59.66419796104643,
5_con_circum,0.25,5,29,0,522,16,,,,5_con_circum_image_36.png,36,308.9822208799999,309.24566679000003,,,,,1,1,2024-10-29_10h05.55.903,visual,2024.1.5,59.66419796104643,
5_con_totaldot,0.25,5,29,1,523,10,,,,5_con_totaldot_image_60.png,60,309.41242479999994,309.66245909,,,,,1,1,2024-10-29_10h05.55.903,visual,2024.1.5,59.66419796104643,
3_con_totaldot,0.25,3,29,2,524,8,,,,3_con_totaldot_image_58.png,58,309.82902909999996,310.07912799,,,,,1,1,2024-10-29_10h05.55.903,visual,2024.1.5,59.66419796104643,
3_con_circum,0.25,3,29,3,525,14,,,,3_con_circum_image_12.png,12,310.24572079999996,310.49911569,,,,,1,1,2024-10-29_10h05.55.903,visual,2024.1.5,59.66419796104643,
2_con_circum,0.25,2,29,4,526,13,,,,2_con_circum_image_38.png,38,310.66557349999994,310.91564619,,,,,1,1,2024-10-29_10h05.55.903,visual,2024.1.5,59.66419796104643,
6_con_totaldot,0.25,6,29,5,527,11,,,,6_con_totaldot_image_11.png,11,311.08232209999994,311.33235019,,,,,1,1,2024-10-29_10h05.55.903,visual,2024.1.5,59.66419796104643,
3_con_singledot,0.25,3,29,6,528,2,,,,3_con_singledot_image_68.png,68,311.4962398,311.74911799,,,,,1,1,2024-10-29_10h05.55.903,visual,2024.1.5,59.66419796104643,
1_con_singledot,0.25,1,29,7,529,0,,,,1_con_singledot_image_22.png,22,311.91566339999997,312.16916759,,,,,1,1,2024-10-29_10h05.55.903,visual,2024.1.5,59.66419796104643,
4_con_singledot,0.25,4,29,8,530,3,,,,4_con_singledot_image_9.png,9,312.32935409999993,312.57925299000004,,,,,1,1,2024-10-29_10h05.55.903,visual,2024.1.5,59.66419796104643,
2_con_totaldot,0.25,2,29,9,531,7,,,,2_con_totaldot_image_68.png,68,312.74892279999995,313.01259438999995,,,,,1,1,2024-10-29_10h05.55.903,visual,2024.1.5,59.66419796104643,
1_con_totaldot,0.25,1,29,10,532,6,,,,1_con_totaldot_image_13.png,13,313.17919929999994,313.42923429,,,,,1,1,2024-10-29_10h05.55.903,visual,2024.1.5,59.66419796104643,
6_con_circum,0.25,6,29,11,533,17,,,,6_con_circum_image_27.png,27,313.5989594,313.86263399,,,,,1,1,2024-10-29_10h05.55.903,visual,2024.1.5,59.66419796104643,
6_con_singledot,0.25,6,29,12,534,5,,,,6_con_singledot_image_55.png,55,314.02919099999997,314.28210258999997,,,,,1,1,2024-10-29_10h05.55.903,visual,2024.1.5,59.66419796104643,
2_con_singledot,0.25,2,29,13,535,1,,,,2_con_singledot_image_52.png,52,314.44588369999997,314.69594389,,,,,1,1,2024-10-29_10h05.55.903,visual,2024.1.5,59.66419796104643,
4_con_circum,0.25,4,29,14,536,15,,,,4_con_circum_image_58.png,58,314.87934949,315.12930849,,,,,1,1,2024-10-29_10h05.55.903,visual,2024.1.5,59.66419796104643,
1_con_circum,0.25,1,29,15,537,12,,,,1_con_circum_image_22.png,22,315.29893189999996,315.54890239,,,,,1,1,2024-10-29_10h05.55.903,visual,2024.1.5,59.66419796104643,
4_con_totaldot,0.25,4,29,16,538,9,,,,4_con_totaldot_image_1.png,1,315.7126045,315.96550628999995,,,,,1,1,2024-10-29_10h05.55.903,visual,2024.1.5,59.66419796104643,
5_con_singledot,0.25,5,29,17,539,4,,,,5_con_singledot_image_66.png,66,316.1321729,316.39885879,1.wav,316.4994591,1.mp4,316.4994591,1,1,2024-10-29_10h05.55.903,visual,2024.1.5,59.66419796104643,
2_con_totaldot,0.25,2,30,0,540,7,,,,2_con_totaldot_image_42.png,42,318.4236540799999,318.67894949,,,,,1,1,2024-10-29_10h05.55.903,visual,2024.1.5,59.66419796104643,
5_con_totaldot,0.25,5,30,1,541,10,,,,5_con_totaldot_image_38.png,38,318.84557799999993,319.09573669,,,,,1,1,2024-10-29_10h05.55.903,visual,2024.1.5,59.66419796104643,
3_con_singledot,0.25,3,30,2,542,2,,,,3_con_singledot_image_33.png,33,319.26234009999996,319.51238039000003,,,,,1,1,2024-10-29_10h05.55.903,visual,2024.1.5,59.66419796104643,
3_con_totaldot,0.25,3,30,3,543,8,,,,3_con_totaldot_image_3.png,3,319.6822998,319.94905029,,,,,1,1,2024-10-29_10h05.55.903,visual,2024.1.5,59.66419796104643,
5_con_circum,0.25,5,30,4,544,16,,,,5_con_circum_image_53.png,53,320.1154331,320.36553479,,,,,1,1,2024-10-29_10h05.55.903,visual,2024.1.5,59.66419796104643,
4_con_singledot,0.25,4,30,5,545,3,,,,4_con_singledot_image_8.png,8,320.5321805,320.78212259000003,,,,,1,1,2024-10-29_10h05.55.903,visual,2024.1.5,59.66419796104643,
4_con_circum,0.25,4,30,6,546,15,,,,4_con_circum_image_57.png,57,320.9458597,321.19883489,,,,,1,1,2024-10-29_10h05.55.903,visual,2024.1.5,59.66419796104643,
6_con_circum,0.25,6,30,7,547,17,,,,6_con_circum_image_37.png,37,321.3653723,321.61550219,,,,,1,1,2024-10-29_10h05.55.903,visual,2024.1.5,59.66419796104643,
1_con_totaldot,0.25,1,30,8,548,6,,,,1_con_totaldot_image_60.png,60,321.78210679999995,322.03594318999995,,,,,1,1,2024-10-29_10h05.55.903,visual,2024.1.5,59.66419796104643,
2_con_circum,0.25,2,30,9,549,13,,,,2_con_circum_image_59.png,59,322.1961671,322.44883329,,,,,1,1,2024-10-29_10h05.55.903,visual,2024.1.5,59.66419796104643,
1_con_circum,0.25,1,30,10,550,12,,,,1_con_circum_image_42.png,42,322.615317,322.87920078999997,,,,,1,1,2024-10-29_10h05.55.903,visual,2024.1.5,59.66419796104643,
6_con_singledot,0.25,6,30,11,551,5,,,,6_con_singledot_image_50.png,50,323.04877209999995,323.29881729000004,,,,,1,1,2024-10-29_10h05.55.903,visual,2024.1.5,59.66419796104643,
5_con_singledot,0.25,5,30,12,552,4,,,,5_con_singledot_image_21.png,21,323.4624639,323.71254839,,,,,1,1,2024-10-29_10h05.55.903,visual,2024.1.5,59.66419796104643,
1_con_singledot,0.25,1,30,13,553,0,,,,1_con_singledot_image_64.png,64,323.8821987,324.14890209000004,,,,,1,1,2024-10-29_10h05.55.903,visual,2024.1.5,59.66419796104643,
2_con_singledot,0.25,2,30,14,554,1,,,,2_con_singledot_image_25.png,25,324.3155547,324.56545789,,,,,1,1,2024-10-29_10h05.55.903,visual,2024.1.5,59.66419796104643,
4_con_totaldot,0.25,4,30,15,555,9,,,,4_con_totaldot_image_30.png,30,324.7320582,324.98218889000003,,,,,1,1,2024-10-29_10h05.55.903,visual,2024.1.5,59.66419796104643,
6_con_totaldot,0.25,6,30,16,556,11,,,,6_con_totaldot_image_51.png,51,325.14582569999993,325.39595118999995,,,,,1,1,2024-10-29_10h05.55.903,visual,2024.1.5,59.66419796104643,
3_con_circum,0.25,3,30,17,557,14,,,,3_con_circum_image_62.png,62,325.5658635,325.82921999,1.wav,325.930237,7.mp4,325.930237,1,1,2024-10-29_10h05.55.903,visual,2024.1.5,59.66419796104643,
2_con_circum,0.25,2,31,0,558,13,,,,2_con_circum_image_46.png,46,327.84580887999994,328.09579778999995,,,,,1,1,2024-10-29_10h05.55.903,visual,2024.1.5,59.66419796104643,
5_con_singledot,0.25,5,31,1,559,4,,,,5_con_singledot_image_69.png,69,328.26239499999997,328.51227408999995,,,,,1,1,2024-10-29_10h05.55.903,visual,2024.1.5,59.66419796104643,
6_con_circum,0.25,6,31,2,560,17,,,,6_con_circum_image_15.png,15,328.6790052,328.92899469,,,,,1,1,2024-10-29_10h05.55.903,visual,2024.1.5,59.66419796104643,
4_con_totaldot,0.25,4,31,3,561,9,,,,4_con_totaldot_image_54.png,54,329.0956285,329.34593819,,,,,1,1,2024-10-29_10h05.55.903,visual,2024.1.5,59.66419796104643,
1_con_circum,0.25,1,31,4,562,12,,,,1_con_circum_image_37.png,37,329.51547159999996,329.78218909000003,,,,,1,1,2024-10-29_10h05.55.903,visual,2024.1.5,59.66419796104643,
3_con_singledot,0.25,3,31,5,563,2,,,,3_con_singledot_image_10.png,10,329.93210840999996,330.18209449,,,,,1,1,2024-10-29_10h05.55.903,visual,2024.1.5,59.66419796104643,
1_con_totaldot,0.25,1,31,6,564,6,,,,1_con_totaldot_image_69.png,69,330.3458914,330.59883558999996,,,,,1,1,2024-10-29_10h05.55.903,visual,2024.1.5,59.66419796104643,
6_con_singledot,0.25,6,31,7,565,5,,,,6_con_singledot_image_41.png,41,330.762517,331.01555169,,,,,1,1,2024-10-29_10h05.55.903,visual,2024.1.5,59.66419796104643,
5_con_totaldot,0.25,5,31,8,566,10,,,,5_con_totaldot_image_50.png,50,331.18210679999993,331.43202088999993,,,,,1,1,2024-10-29_10h05.55.903,visual,2024.1.5,59.66419796104643,
4_con_singledot,0.25,4,31,9,567,3,,,,4_con_singledot_image_16.png,16,331.59585219999997,331.84585798999996,,,,,1,1,2024-10-29_10h05.55.903,visual,2024.1.5,59.66419796104643,
2_con_totaldot,0.25,2,31,10,568,7,,,,2_con_totaldot_image_32.png,32,332.0123983,332.26266878999996,,,,,1,1,2024-10-29_10h05.55.903,visual,2024.1.5,59.66419796104643,
3_con_circum,0.25,3,31,11,569,14,,,,3_con_circum_image_48.png,48,332.4291366,332.67911229,,,,,1,1,2024-10-29_10h05.55.903,visual,2024.1.5,59.66419796104643,
2_con_singledot,0.25,2,31,12,570,1,,,,2_con_singledot_image_55.png,55,332.84575329999996,333.09583018999996,,,,,1,1,2024-10-29_10h05.55.903,visual,2024.1.5,59.66419796104643,
6_con_totaldot,0.25,6,31,13,571,11,,,,6_con_totaldot_image_25.png,25,333.26246159999994,333.51251358999997,,,,,1,1,2024-10-29_10h05.55.903,visual,2024.1.5,59.66419796104643,
4_con_circum,0.25,4,31,14,572,15,,,,4_con_circum_image_62.png,62,333.6790851999999,333.93210358999994,,,,,1,1,2024-10-29_10h05.55.903,visual,2024.1.5,59.66419796104643,
1_con_singledot,0.25,1,31,15,573,0,,,,1_con_singledot_image_66.png,66,334.0988539,334.36818329,,,,,1,1,2024-10-29_10h05.55.903,visual,2024.1.5,59.66419796104643,
5_con_circum,0.25,5,31,16,574,16,,,,5_con_circum_image_62.png,62,334.5288039999999,334.77892469,,,,,1,1,2024-10-29_10h05.55.903,visual,2024.1.5,59.66419796104643,
3_con_totaldot,0.25,3,31,17,575,8,,,,3_con_totaldot_image_8.png,8,334.94568189999995,335.19551598999993,5.wav,335.2961132,7.mp4,335.2961132,1,1,2024-10-29_10h05.55.903,visual,2024.1.5,59.66419796104643,
1_con_circum,0.25,1,32,0,576,12,,,,1_con_circum_image_45.png,45,337.21952307999993,337.48233928999997,,,,,1,1,2024-10-29_10h05.55.903,visual,2024.1.5,59.66419796104643,
5_con_singledot,0.25,5,32,1,577,4,,,,5_con_singledot_image_1.png,1,337.6487456,337.91250319,,,,,1,1,2024-10-29_10h05.55.903,visual,2024.1.5,59.66419796104643,
2_con_totaldot,0.25,2,32,2,578,7,,,,2_con_totaldot_image_30.png,30,338.0819663,338.34577009000003,,,,,1,1,2024-10-29_10h05.55.903,visual,2024.1.5,59.66419796104643,
3_con_circum,0.25,3,32,3,579,14,,,,3_con_circum_image_66.png,66,338.5123843,338.76241768999995,,,,,1,1,2024-10-29_10h05.55.903,visual,2024.1.5,59.66419796104643,
4_con_singledot,0.25,4,32,4,580,3,,,,4_con_singledot_image_56.png,56,338.9319872,339.18205958999994,,,,,1,1,2024-10-29_10h05.55.903,visual,2024.1.5,59.66419796104643,
6_con_singledot,0.25,6,32,5,581,5,,,,6_con_singledot_image_60.png,60,339.3458786,339.59592229000003,,,,,1,1,2024-10-29_10h05.55.903,visual,2024.1.5,59.66419796104643,
2_con_circum,0.25,2,32,6,582,13,,,,2_con_circum_image_62.png,62,339.76531019999993,340.01545229000004,,,,,1,1,2024-10-29_10h05.55.903,visual,2024.1.5,59.66419796104643,
4_con_totaldot,0.25,4,32,7,583,9,,,,4_con_totaldot_image_55.png,55,340.1790505,340.43210329000004,,,,,1,1,2024-10-29_10h05.55.903,visual,2024.1.5,59.66419796104643,
3_con_totaldot,0.25,3,32,8,584,8,,,,3_con_totaldot_image_31.png,31,340.58212211,340.84874698999994,,,,,1,1,2024-10-29_10h05.55.903,visual,2024.1.5,59.66419796104643,
6_con_circum,0.25,6,32,9,585,17,,,,6_con_circum_image_20.png,20,341.0125166,341.26536488999994,,,,,1,1,2024-10-29_10h05.55.903,visual,2024.1.5,59.66419796104643,
6_con_totaldot,0.25,6,32,10,586,11,,,,6_con_totaldot_image_54.png,54,341.4290473,341.67913588999994,,,,,1,1,2024-10-29_10h05.55.903,visual,2024.1.5,59.66419796104643,
